ProlificID,Native,Otherlangs,Taskdesc,experiment,trial,trans,foil,response,rt,form,identifier,grade
123,english,none,guessing stuff,1,1,FLUFFY,http://honestcookingblog.com/soundfiles//rizyu.mp3,A,1995,fuwafuwa,fuwafuwa_FLUFFY,correct
123,english,none,guessing stuff,1,2,WOBBLING,http://honestcookingblog.com/soundfiles//tyekye.mp3,B,2015,yoroyoro,yoroyoro_WOBBLING,correct
123,english,none,guessing stuff,1,3,SLY,http://honestcookingblog.com/soundfiles//yaQkaa.mp3,A,1990,zurui,zurui_CUNNING,correct
123,english,none,guessing stuff,1,4,(SPINE) TINGLING,http://honestcookingblog.com/soundfiles//weni.mp3,B,925,zokuzoku,zokuzoku_(SPINE) TINGLING,correct
123,english,none,guessing stuff,1,5,GRITTY,http://honestcookingblog.com/soundfiles//ruQka.mp3,A,5688,zyarizyari,zyarizyari_ROUGH,correct
123,english,none,guessing stuff,1,6,SLUGGISH,http://honestcookingblog.com/soundfiles//wuQru.mp3,A,5589,naNgii,naNgii_SLUGGISH,incorrect
123,english,none,guessing stuff,1,7,SLOSHING,http://honestcookingblog.com/soundfiles//wuya.mp3,B,11671,taputapu,taputapu_SLOSHING,incorrect
123,english,none,guessing stuff,1,8,NOISY,http://honestcookingblog.com/soundfiles//ena.mp3,B,2070,ookii,ookii_LOUD,correct
123,english,none,guessing stuff,1,9,HARD,http://honestcookingblog.com/soundfiles//nuwa.mp3,A,2502,katyikatyi,katyikatyi_HARD,correct
123,english,none,guessing stuff,1,10,LONG,http://honestcookingblog.com/soundfiles//pyuwia.mp3,B,3104,nagai,nagai_LONG,correct
123,english,none,guessing stuff,1,11,QUIET,http://honestcookingblog.com/soundfiles//wuQ.mp3,A,7285,syiiN,syiiN_QUIET,correct
123,english,none,guessing stuff,1,12,SOUR,http://honestcookingblog.com/soundfiles//yaraa.mp3,B,4273,syibui,syibui_SOUR,correct
123,english,none,guessing stuff,1,13,ACRID,http://honestcookingblog.com/soundfiles//pyuhia.mp3,A,3214,nigai,nigai_BITTER,correct
123,english,none,guessing stuff,1,14,A LITTLE,http://honestcookingblog.com/soundfiles//reye.mp3,B,12054,tyoQto,tyoQto_A LITTLE,correct
123,english,none,guessing stuff,1,15,SEEPING OUT (E.G. LIQUID),http://honestcookingblog.com/soundfiles//riyi.mp3,A,3768,guzyuguzyu,guzyuguzyu_OOZING,correct
123,english,none,guessing stuff,1,16,TIGHT,http://honestcookingblog.com/soundfiles//yuwe.mp3,B,4202,tyiisoo,tyiisoo_TIGHT,correct
123,english,none,guessing stuff,1,17,EXHAUSTED,http://honestcookingblog.com/soundfiles//yuQwe.mp3,B,2498,syiNdo,syiNdo_EXHAUSTED,incorrect
123,english,none,guessing stuff,1,18,THIN,http://honestcookingblog.com/soundfiles//wehuru.mp3,B,1019,komaka,komaka_THIN,correct
123,english,none,guessing stuff,1,19,TREMBLING,http://honestcookingblog.com/soundfiles//ruwi.mp3,A,2030,gatagata,gatagata_SHAKING,correct
123,english,none,guessing stuff,1,20,ROUGH,http://honestcookingblog.com/soundfiles//eru.mp3,B,821,ookii,ookii_ROUGH,correct
123,english,none,guessing stuff,1,21,ANNOYED,http://honestcookingblog.com/soundfiles//akyiruweyua.mp3,A,6683,iratyimonai,iratyimonai_ANNOYED,correct
123,english,none,guessing stuff,1,22,EXHAUSTED,http://honestcookingblog.com/soundfiles//neQdia.mp3,A,909,kowai,kowai_EXHAUSTED,incorrect
123,english,none,guessing stuff,1,23,CLEAN,http://honestcookingblog.com/soundfiles//hurepya.mp3,B,1337,migotsu,migotsu_CLEAN,incorrect
123,english,none,guessing stuff,1,24,GLUM,http://honestcookingblog.com/soundfiles//wipyupyu.mp3,B,6961,gurasyi,gurasyi_SAD,correct
123,english,none,guessing stuff,1,25,GLAD,http://honestcookingblog.com/soundfiles//akyopyu.mp3,A,5634,uresyii,uresyii_GLAD,correct
123,english,none,guessing stuff,1,26,GRITTY,http://honestcookingblog.com/soundfiles//uQkiu.mp3,B,5287,arai,arai_ROUGH,correct
123,english,none,guessing stuff,1,27,SLOW,http://honestcookingblog.com/soundfiles//heQrayiu.mp3,A,3556,doNkusai,doNkusai_SLOW,correct
123,english,none,guessing stuff,1,28,NOISY,http://honestcookingblog.com/soundfiles//wowikiyuwi.mp3,B,2012,sekarasyika,sekarasyika_LOUD,correct
123,english,none,guessing stuff,1,29,KNOCK (AT THE DOOR),http://honestcookingblog.com/soundfiles//ruhira.mp3,A,5052,hadagu,hadagu_RAP (AT THE DOOR),correct
123,english,none,guessing stuff,1,30,SMOKY,http://honestcookingblog.com/soundfiles//nowiyiu.mp3,B,2431,kebutai,kebutai_SMOKY,correct
123,english,none,guessing stuff,1,31,GLUM,http://honestcookingblog.com/soundfiles//pyoyiwia.mp3,A,3737,setsunai,setsunai_SAD,correct
123,english,none,guessing stuff,1,32,HARD,http://honestcookingblog.com/soundfiles//zuwua.mp3,A,1074,katai,katai_HARD,incorrect
123,english,none,guessing stuff,1,33,BOUNCING,http://honestcookingblog.com/soundfiles//zeQ.mp3,A,3389,pyoNpyoN,pyoNpyoN_BOUNCING,correct
123,english,none,guessing stuff,1,34,WHISPERING,http://honestcookingblog.com/soundfiles//dzame.mp3,A,1756,hisohiso,hisohiso_WHISPERING,incorrect
601c34296de5a06e8cf7085f,english,none,guessing which word was the correct sound in japanese,1,1,FLUFFY,http://honestcookingblog.com/soundfiles//gityu.mp3,A,1408,fuwafuwa,fuwafuwa_FLUFFY,correct
601c34296de5a06e8cf7085f,english,none,guessing which word was the correct sound in japanese,1,2,WOBBLING,http://honestcookingblog.com/soundfiles//tyekye.mp3,B,1288,yoroyoro,yoroyoro_WOBBLING,correct
601c34296de5a06e8cf7085f,english,none,guessing which word was the correct sound in japanese,1,3,SNEAKY,http://honestcookingblog.com/soundfiles//wapyaa.mp3,A,1113,zurui,zurui_CUNNING,correct
601c34296de5a06e8cf7085f,english,none,guessing which word was the correct sound in japanese,1,4,(SPINE) TINGLING,http://honestcookingblog.com/soundfiles//pyera.mp3,B,1124,zokuzoku,zokuzoku_(SPINE) TINGLING,correct
601c34296de5a06e8cf7085f,english,none,guessing which word was the correct sound in japanese,1,5,ROUGH,http://honestcookingblog.com/soundfiles//ruQka.mp3,A,1433,zyarizyari,zyarizyari_ROUGH,correct
601c34296de5a06e8cf7085f,english,none,guessing which word was the correct sound in japanese,1,6,LETHARGIC,http://honestcookingblog.com/soundfiles//pyuQwu.mp3,B,952,naNgii,naNgii_SLUGGISH,correct
601c34296de5a06e8cf7085f,english,none,guessing which word was the correct sound in japanese,1,7,SPLASHING,http://honestcookingblog.com/soundfiles//wuya.mp3,A,1717,taputapu,taputapu_SLOSHING,correct
601c34296de5a06e8cf7085f,english,none,guessing which word was the correct sound in japanese,1,8,LOUD,http://honestcookingblog.com/soundfiles//era.mp3,B,1412,ookii,ookii_LOUD,correct
601c34296de5a06e8cf7085f,english,none,guessing which word was the correct sound in japanese,1,9,HARD,http://honestcookingblog.com/soundfiles//wuya.mp3,B,2116,katyikatyi,katyikatyi_HARD,incorrect
601c34296de5a06e8cf7085f,english,none,guessing which word was the correct sound in japanese,1,10,LONG,http://honestcookingblog.com/soundfiles//pyuwia.mp3,A,2105,nagai,nagai_LONG,incorrect
601c34296de5a06e8cf7085f,english,none,guessing which word was the correct sound in japanese,1,11,QUIET,http://honestcookingblog.com/soundfiles//yaQ.mp3,B,1052,syiiN,syiiN_QUIET,incorrect
601c34296de5a06e8cf7085f,english,none,guessing which word was the correct sound in japanese,1,12,SOUR,http://honestcookingblog.com/soundfiles//wuwiu.mp3,B,1073,syibui,syibui_SOUR,correct
601c34296de5a06e8cf7085f,english,none,guessing which word was the correct sound in japanese,1,13,ACRID,http://honestcookingblog.com/soundfiles//yawuu.mp3,B,2292,nigai,nigai_BITTER,incorrect
601c34296de5a06e8cf7085f,english,none,guessing which word was the correct sound in japanese,1,14,A LITTLE,http://honestcookingblog.com/soundfiles//wewe.mp3,B,1187,tyoQto,tyoQto_A LITTLE,correct
601c34296de5a06e8cf7085f,english,none,guessing which word was the correct sound in japanese,1,15,OOZING,http://honestcookingblog.com/soundfiles//wara.mp3,A,2094,guzyuguzyu,guzyuguzyu_OOZING,correct
601c34296de5a06e8cf7085f,english,none,guessing which word was the correct sound in japanese,1,16,TIGHT,http://honestcookingblog.com/soundfiles//yuwe.mp3,A,1431,tyiisoo,tyiisoo_TIGHT,incorrect
601c34296de5a06e8cf7085f,english,none,guessing which word was the correct sound in japanese,1,17,TIRED,http://honestcookingblog.com/soundfiles//waQhe.mp3,A,845,syiNdo,syiNdo_EXHAUSTED,correct
601c34296de5a06e8cf7085f,english,none,guessing which word was the correct sound in japanese,1,18,THIN,http://honestcookingblog.com/soundfiles//newiwi.mp3,B,1048,komaka,komaka_THIN,correct
601c34296de5a06e8cf7085f,english,none,guessing which word was the correct sound in japanese,1,19,TREMBLING,http://honestcookingblog.com/soundfiles//wimu.mp3,B,956,gatagata,gatagata_SHAKING,incorrect
601c34296de5a06e8cf7085f,english,none,guessing which word was the correct sound in japanese,1,20,COARSE,http://honestcookingblog.com/soundfiles//ewa.mp3,A,1042,ookii,ookii_ROUGH,incorrect
601c34296de5a06e8cf7085f,english,none,guessing which word was the correct sound in japanese,1,21,ANNOYED,http://honestcookingblog.com/soundfiles//upyuwarepyiu.mp3,A,789,iratyimonai,iratyimonai_ANNOYED,correct
601c34296de5a06e8cf7085f,english,none,guessing which word was the correct sound in japanese,1,22,TIRED,http://honestcookingblog.com/soundfiles//retyuu.mp3,A,1016,kowai,kowai_EXHAUSTED,incorrect
601c34296de5a06e8cf7085f,english,none,guessing which word was the correct sound in japanese,1,23,TIDY,http://honestcookingblog.com/soundfiles//ruhewa.mp3,A,1653,migotsu,migotsu_CLEAN,correct
601c34296de5a06e8cf7085f,english,none,guessing which word was the correct sound in japanese,1,24,SAD,http://honestcookingblog.com/soundfiles//wipyupyu.mp3,B,1135,gurasyi,gurasyi_SAD,correct
601c34296de5a06e8cf7085f,english,none,guessing which word was the correct sound in japanese,1,25,HAPPY,http://honestcookingblog.com/soundfiles//akyopyu.mp3,A,1760,uresyii,uresyii_GLAD,correct
601c34296de5a06e8cf7085f,english,none,guessing which word was the correct sound in japanese,1,26,ROUGH,http://honestcookingblog.com/soundfiles//uQkiu.mp3,A,1633,arai,arai_ROUGH,incorrect
601c34296de5a06e8cf7085f,english,none,guessing which word was the correct sound in japanese,1,27,SLOW,http://honestcookingblog.com/soundfiles//weQwiwua.mp3,A,1115,doNkusai,doNkusai_SLOW,correct
601c34296de5a06e8cf7085f,english,none,guessing which word was the correct sound in japanese,1,28,NOISY,http://honestcookingblog.com/soundfiles//pyoniQpiwuri.mp3,A,770,sekarasyika,sekarasyika_LOUD,incorrect
601c34296de5a06e8cf7085f,english,none,guessing which word was the correct sound in japanese,1,29,KNOCK (AT THE DOOR),http://honestcookingblog.com/soundfiles//pyiwuhi.mp3,A,857,hadagu,hadagu_RAP (AT THE DOOR),correct
601c34296de5a06e8cf7085f,english,none,guessing which word was the correct sound in japanese,1,30,SMOKY,http://honestcookingblog.com/soundfiles//woramua.mp3,A,738,kebutai,kebutai_SMOKY,incorrect
601c34296de5a06e8cf7085f,english,none,guessing which word was the correct sound in japanese,1,31,SAD,http://honestcookingblog.com/soundfiles//wopyiyia.mp3,A,1350,setsunai,setsunai_SAD,correct
601c34296de5a06e8cf7085f,english,none,guessing which word was the correct sound in japanese,1,32,HARD,http://honestcookingblog.com/soundfiles//ruyua.mp3,B,1677,katai,katai_HARD,correct
601c34296de5a06e8cf7085f,english,none,guessing which word was the correct sound in japanese,1,33,HOPPING,http://honestcookingblog.com/soundfiles//reQ.mp3,A,1054,pyoNpyoN,pyoNpyoN_BOUNCING,correct
601c34296de5a06e8cf7085f,english,none,guessing which word was the correct sound in japanese,1,34,WHISPERING,http://honestcookingblog.com/soundfiles//zyage.mp3,B,1149,hisohiso,hisohiso_WHISPERING,correct
5d02c54c24dcfd00165f7012,English,NA,"Listening to two japanese words, and deciding which one was the translation of the english word",1,1,FLUFFY,http://honestcookingblog.com/soundfiles//gityu.mp3,A,3798,fuwafuwa,fuwafuwa_FLUFFY,correct
5d02c54c24dcfd00165f7012,English,NA,"Listening to two japanese words, and deciding which one was the translation of the english word",1,2,WOBBLING,http://honestcookingblog.com/soundfiles//tehe.mp3,B,1135,yoroyoro,yoroyoro_WOBBLING,correct
5d02c54c24dcfd00165f7012,English,NA,"Listening to two japanese words, and deciding which one was the translation of the english word",1,3,SNEAKY,http://honestcookingblog.com/soundfiles//yaQkaa.mp3,B,1920,zurui,zurui_CUNNING,incorrect
5d02c54c24dcfd00165f7012,English,NA,"Listening to two japanese words, and deciding which one was the translation of the english word",1,4,(SPINE) TINGLING,http://honestcookingblog.com/soundfiles//weni.mp3,B,2224,zokuzoku,zokuzoku_(SPINE) TINGLING,correct
5d02c54c24dcfd00165f7012,English,NA,"Listening to two japanese words, and deciding which one was the translation of the english word",1,5,ROUGH,http://honestcookingblog.com/soundfiles//yiQgu.mp3,B,4707,zyarizyari,zyarizyari_ROUGH,incorrect
5d02c54c24dcfd00165f7012,English,NA,"Listening to two japanese words, and deciding which one was the translation of the english word",1,6,SLUGGISH,http://honestcookingblog.com/soundfiles//wuQru.mp3,B,2241,naNgii,naNgii_SLUGGISH,correct
5d02c54c24dcfd00165f7012,English,NA,"Listening to two japanese words, and deciding which one was the translation of the english word",1,7,SLOSHING,http://honestcookingblog.com/soundfiles//yiwi.mp3,A,2421,taputapu,taputapu_SLOSHING,correct
5d02c54c24dcfd00165f7012,English,NA,"Listening to two japanese words, and deciding which one was the translation of the english word",1,8,NOISY,http://honestcookingblog.com/soundfiles//era.mp3,B,2551,ookii,ookii_LOUD,correct
5d02c54c24dcfd00165f7012,English,NA,"Listening to two japanese words, and deciding which one was the translation of the english word",1,9,HARD,http://honestcookingblog.com/soundfiles//nuwa.mp3,A,2468,katyikatyi,katyikatyi_HARD,correct
5d02c54c24dcfd00165f7012,English,NA,"Listening to two japanese words, and deciding which one was the translation of the english word",1,10,LONG,http://honestcookingblog.com/soundfiles//pyuwia.mp3,B,2504,nagai,nagai_LONG,correct
5d02c54c24dcfd00165f7012,English,NA,"Listening to two japanese words, and deciding which one was the translation of the english word",1,11,QUIET,http://honestcookingblog.com/soundfiles//pyaQ.mp3,A,3877,syiiN,syiiN_QUIET,correct
5d02c54c24dcfd00165f7012,English,NA,"Listening to two japanese words, and deciding which one was the translation of the english word",1,12,SOUR,http://honestcookingblog.com/soundfiles//yaraa.mp3,A,2215,syibui,syibui_SOUR,incorrect
5d02c54c24dcfd00165f7012,English,NA,"Listening to two japanese words, and deciding which one was the translation of the english word",1,13,ACRID,http://honestcookingblog.com/soundfiles//pyuhia.mp3,A,2583,nigai,nigai_BITTER,correct
5d02c54c24dcfd00165f7012,English,NA,"Listening to two japanese words, and deciding which one was the translation of the english word",1,14,A LITTLE,http://honestcookingblog.com/soundfiles//wewe.mp3,B,1597,tyoQto,tyoQto_A LITTLE,correct
5d02c54c24dcfd00165f7012,English,NA,"Listening to two japanese words, and deciding which one was the translation of the english word",1,15,SEEPING OUT (E.G. LIQUID),http://honestcookingblog.com/soundfiles//wara.mp3,A,2395,guzyuguzyu,guzyuguzyu_OOZING,correct
5d02c54c24dcfd00165f7012,English,NA,"Listening to two japanese words, and deciding which one was the translation of the english word",1,16,PINCHING,http://honestcookingblog.com/soundfiles//raye.mp3,B,6289,tyiisoo,tyiisoo_TIGHT,correct
5d02c54c24dcfd00165f7012,English,NA,"Listening to two japanese words, and deciding which one was the translation of the english word",1,17,TIRED,http://honestcookingblog.com/soundfiles//pyaQye.mp3,A,2122,syiNdo,syiNdo_EXHAUSTED,correct
5d02c54c24dcfd00165f7012,English,NA,"Listening to two japanese words, and deciding which one was the translation of the english word",1,18,SLENDER,http://honestcookingblog.com/soundfiles//newiwi.mp3,A,5190,komaka,komaka_THIN,incorrect
5d02c54c24dcfd00165f7012,English,NA,"Listening to two japanese words, and deciding which one was the translation of the english word",1,19,TREMBLING,http://honestcookingblog.com/soundfiles//huyi.mp3,A,3401,gatagata,gatagata_SHAKING,correct
5d02c54c24dcfd00165f7012,English,NA,"Listening to two japanese words, and deciding which one was the translation of the english word",1,20,ROUGH,http://honestcookingblog.com/soundfiles//enu.mp3,B,4215,ookii,ookii_ROUGH,correct
5d02c54c24dcfd00165f7012,English,NA,"Listening to two japanese words, and deciding which one was the translation of the english word",1,21,ANNOYED,http://honestcookingblog.com/soundfiles//upyuwarepyiu.mp3,A,2738,iratyimonai,iratyimonai_ANNOYED,correct
5d02c54c24dcfd00165f7012,English,NA,"Listening to two japanese words, and deciding which one was the translation of the english word",1,22,TIRED,http://honestcookingblog.com/soundfiles//weQtuu.mp3,A,2061,kowai,kowai_EXHAUSTED,incorrect
5d02c54c24dcfd00165f7012,English,NA,"Listening to two japanese words, and deciding which one was the translation of the english word",1,23,TIDY,http://honestcookingblog.com/soundfiles//hurepya.mp3,A,3065,migotsu,migotsu_CLEAN,correct
5d02c54c24dcfd00165f7012,English,NA,"Listening to two japanese words, and deciding which one was the translation of the english word",1,24,SAD,http://honestcookingblog.com/soundfiles//raQkiwa.mp3,B,2463,gurasyi,gurasyi_SAD,correct
5d02c54c24dcfd00165f7012,English,NA,"Listening to two japanese words, and deciding which one was the translation of the english word",1,25,HAPPY,http://honestcookingblog.com/soundfiles//aQpowu.mp3,A,1903,uresyii,uresyii_GLAD,correct
5d02c54c24dcfd00165f7012,English,NA,"Listening to two japanese words, and deciding which one was the translation of the english word",1,26,GRITTY,http://honestcookingblog.com/soundfiles//iQgua.mp3,A,5804,arai,arai_ROUGH,incorrect
5d02c54c24dcfd00165f7012,English,NA,"Listening to two japanese words, and deciding which one was the translation of the english word",1,27,SLOW,http://honestcookingblog.com/soundfiles//weQwiwua.mp3,B,3191,doNkusai,doNkusai_SLOW,incorrect
5d02c54c24dcfd00165f7012,English,NA,"Listening to two japanese words, and deciding which one was the translation of the english word",1,28,LOUD,http://honestcookingblog.com/soundfiles//pyoniQpiwuri.mp3,B,2829,sekarasyika,sekarasyika_LOUD,correct
5d02c54c24dcfd00165f7012,English,NA,"Listening to two japanese words, and deciding which one was the translation of the english word",1,29,RAP (AT THE DOOR),http://honestcookingblog.com/soundfiles//ruhira.mp3,A,2786,hadagu,hadagu_RAP (AT THE DOOR),correct
5d02c54c24dcfd00165f7012,English,NA,"Listening to two japanese words, and deciding which one was the translation of the english word",1,30,SMOKY,http://honestcookingblog.com/soundfiles//nowiyiu.mp3,B,2644,kebutai,kebutai_SMOKY,correct
5d02c54c24dcfd00165f7012,English,NA,"Listening to two japanese words, and deciding which one was the translation of the english word",1,31,SAD,http://honestcookingblog.com/soundfiles//yowapyuu.mp3,B,1857,setsunai,setsunai_SAD,incorrect
5d02c54c24dcfd00165f7012,English,NA,"Listening to two japanese words, and deciding which one was the translation of the english word",1,32,HARD,http://honestcookingblog.com/soundfiles//ruyua.mp3,B,3279,katai,katai_HARD,correct
5d02c54c24dcfd00165f7012,English,NA,"Listening to two japanese words, and deciding which one was the translation of the english word",1,33,BOUNCING,http://honestcookingblog.com/soundfiles//reQ.mp3,A,1263,pyoNpyoN,pyoNpyoN_BOUNCING,correct
5d02c54c24dcfd00165f7012,English,NA,"Listening to two japanese words, and deciding which one was the translation of the english word",1,34,WHISPERING,http://honestcookingblog.com/soundfiles//nake.mp3,B,2216,hisohiso,hisohiso_WHISPERING,correct
6063759f4d065d4cc8e2b78d,English,NA,Guessing English translations of Japanese spoken words,1,1,FLUFFY,http://honestcookingblog.com/soundfiles//nitsu.mp3,A,2737,fuwafuwa,fuwafuwa_FLUFFY,correct
6063759f4d065d4cc8e2b78d,English,NA,Guessing English translations of Japanese spoken words,1,2,WOBBLING,http://honestcookingblog.com/soundfiles//tehe.mp3,B,1125,yoroyoro,yoroyoro_WOBBLING,correct
6063759f4d065d4cc8e2b78d,English,NA,Guessing English translations of Japanese spoken words,1,3,SLY,http://honestcookingblog.com/soundfiles//pyiQpiu.mp3,A,860,zurui,zurui_CUNNING,correct
6063759f4d065d4cc8e2b78d,English,NA,Guessing English translations of Japanese spoken words,1,4,SHIVERS (DOWN YOUR SPINE),http://honestcookingblog.com/soundfiles//yewi.mp3,B,659,zokuzoku,zokuzoku_(SPINE) TINGLING,correct
6063759f4d065d4cc8e2b78d,English,NA,Guessing English translations of Japanese spoken words,1,5,COARSE,http://honestcookingblog.com/soundfiles//yiQgu.mp3,A,9653,zyarizyari,zyarizyari_ROUGH,correct
6063759f4d065d4cc8e2b78d,English,NA,Guessing English translations of Japanese spoken words,1,6,SLUGGISH,http://honestcookingblog.com/soundfiles//pyuQwu.mp3,B,3244,naNgii,naNgii_SLUGGISH,correct
6063759f4d065d4cc8e2b78d,English,NA,Guessing English translations of Japanese spoken words,1,7,SLOSHING,http://honestcookingblog.com/soundfiles//wuya.mp3,B,2499,taputapu,taputapu_SLOSHING,incorrect
6063759f4d065d4cc8e2b78d,English,NA,Guessing English translations of Japanese spoken words,1,8,NOISY,http://honestcookingblog.com/soundfiles//era.mp3,A,3713,ookii,ookii_LOUD,incorrect
6063759f4d065d4cc8e2b78d,English,NA,Guessing English translations of Japanese spoken words,1,9,HARD,http://honestcookingblog.com/soundfiles//riru.mp3,B,4651,katyikatyi,katyikatyi_HARD,incorrect
6063759f4d065d4cc8e2b78d,English,NA,Guessing English translations of Japanese spoken words,1,10,LONG,http://honestcookingblog.com/soundfiles//yiruu.mp3,B,7829,nagai,nagai_LONG,correct
6063759f4d065d4cc8e2b78d,English,NA,Guessing English translations of Japanese spoken words,1,11,QUIET,http://honestcookingblog.com/soundfiles//wuQ.mp3,B,841,syiiN,syiiN_QUIET,incorrect
6063759f4d065d4cc8e2b78d,English,NA,Guessing English translations of Japanese spoken words,1,12,ACIDIC,http://honestcookingblog.com/soundfiles//wuwiu.mp3,B,5199,syibui,syibui_SOUR,correct
6063759f4d065d4cc8e2b78d,English,NA,Guessing English translations of Japanese spoken words,1,13,ACRID,http://honestcookingblog.com/soundfiles//yawuu.mp3,B,8615,nigai,nigai_BITTER,incorrect
6063759f4d065d4cc8e2b78d,English,NA,Guessing English translations of Japanese spoken words,1,14,A LITTLE,http://honestcookingblog.com/soundfiles//reye.mp3,B,2036,tyoQto,tyoQto_A LITTLE,correct
6063759f4d065d4cc8e2b78d,English,NA,Guessing English translations of Japanese spoken words,1,15,SEEPING OUT (E.G. LIQUID),http://honestcookingblog.com/soundfiles//hawa.mp3,B,2989,guzyuguzyu,guzyuguzyu_OOZING,incorrect
6063759f4d065d4cc8e2b78d,English,NA,Guessing English translations of Japanese spoken words,1,16,PINCHING,http://honestcookingblog.com/soundfiles//raye.mp3,B,2078,tyiisoo,tyiisoo_TIGHT,correct
6063759f4d065d4cc8e2b78d,English,NA,Guessing English translations of Japanese spoken words,1,17,TIRED,http://honestcookingblog.com/soundfiles//waQhe.mp3,B,6561,syiNdo,syiNdo_EXHAUSTED,incorrect
6063759f4d065d4cc8e2b78d,English,NA,Guessing English translations of Japanese spoken words,1,18,SLENDER,http://honestcookingblog.com/soundfiles//reyunu.mp3,A,1030,komaka,komaka_THIN,incorrect
6063759f4d065d4cc8e2b78d,English,NA,Guessing English translations of Japanese spoken words,1,19,SHAKING,http://honestcookingblog.com/soundfiles//huyi.mp3,A,1588,gatagata,gatagata_SHAKING,correct
6063759f4d065d4cc8e2b78d,English,NA,Guessing English translations of Japanese spoken words,1,20,ROUGH,http://honestcookingblog.com/soundfiles//eru.mp3,A,4817,ookii,ookii_ROUGH,incorrect
6063759f4d065d4cc8e2b78d,English,NA,Guessing English translations of Japanese spoken words,1,21,IMPATIENT,http://honestcookingblog.com/soundfiles//upyuwarepyiu.mp3,A,6541,iratyimonai,iratyimonai_ANNOYED,correct
6063759f4d065d4cc8e2b78d,English,NA,Guessing English translations of Japanese spoken words,1,22,WEARY,http://honestcookingblog.com/soundfiles//retyuu.mp3,B,2211,kowai,kowai_EXHAUSTED,correct
6063759f4d065d4cc8e2b78d,English,NA,Guessing English translations of Japanese spoken words,1,23,TIDY,http://honestcookingblog.com/soundfiles//waweyi.mp3,A,11261,migotsu,migotsu_CLEAN,correct
6063759f4d065d4cc8e2b78d,English,NA,Guessing English translations of Japanese spoken words,1,24,GLUM,http://honestcookingblog.com/soundfiles//wipyupyu.mp3,B,2462,gurasyi,gurasyi_SAD,correct
6063759f4d065d4cc8e2b78d,English,NA,Guessing English translations of Japanese spoken words,1,25,HAPPY,http://honestcookingblog.com/soundfiles//aQpowu.mp3,A,1347,uresyii,uresyii_GLAD,correct
6063759f4d065d4cc8e2b78d,English,NA,Guessing English translations of Japanese spoken words,1,26,ROUGH,http://honestcookingblog.com/soundfiles//ipyua.mp3,B,13861,arai,arai_ROUGH,correct
6063759f4d065d4cc8e2b78d,English,NA,Guessing English translations of Japanese spoken words,1,27,SLOW,http://honestcookingblog.com/soundfiles//heQrayiu.mp3,B,783,doNkusai,doNkusai_SLOW,incorrect
6063759f4d065d4cc8e2b78d,English,NA,Guessing English translations of Japanese spoken words,1,28,NOISY,http://honestcookingblog.com/soundfiles//yorukyupyanu.mp3,B,7760,sekarasyika,sekarasyika_LOUD,correct
6063759f4d065d4cc8e2b78d,English,NA,Guessing English translations of Japanese spoken words,1,29,RAP (AT THE DOOR),http://honestcookingblog.com/soundfiles//wiyuwi.mp3,A,4861,hadagu,hadagu_RAP (AT THE DOOR),correct
6063759f4d065d4cc8e2b78d,English,NA,Guessing English translations of Japanese spoken words,1,30,SMOKY,http://honestcookingblog.com/soundfiles//woramua.mp3,A,4640,kebutai,kebutai_SMOKY,incorrect
6063759f4d065d4cc8e2b78d,English,NA,Guessing English translations of Japanese spoken words,1,31,SAD,http://honestcookingblog.com/soundfiles//pyoyiwia.mp3,A,6882,setsunai,setsunai_SAD,correct
6063759f4d065d4cc8e2b78d,English,NA,Guessing English translations of Japanese spoken words,1,32,HARD,http://honestcookingblog.com/soundfiles//ruyua.mp3,B,1024,katai,katai_HARD,correct
6063759f4d065d4cc8e2b78d,English,NA,Guessing English translations of Japanese spoken words,1,33,BOUNCING,http://honestcookingblog.com/soundfiles//zeQ.mp3,A,622,pyoNpyoN,pyoNpyoN_BOUNCING,correct
6063759f4d065d4cc8e2b78d,English,NA,Guessing English translations of Japanese spoken words,1,34,WHISPERING,http://honestcookingblog.com/soundfiles//dzame.mp3,B,1262,hisohiso,hisohiso_WHISPERING,correct
5a9bc842873cda0001dcb644,English,NA,Assigning Japanese words to the engish equivalents,1,1,FLUFFY,http://honestcookingblog.com/soundfiles//nitsu.mp3,A,1792,fuwafuwa,fuwafuwa_FLUFFY,correct
5a9bc842873cda0001dcb644,English,NA,Assigning Japanese words to the engish equivalents,1,2,WOBBLING,http://honestcookingblog.com/soundfiles//tyekye.mp3,B,1653,yoroyoro,yoroyoro_WOBBLING,correct
5a9bc842873cda0001dcb644,English,NA,Assigning Japanese words to the engish equivalents,1,3,CUNNING,http://honestcookingblog.com/soundfiles//yaQkaa.mp3,A,1034,zurui,zurui_CUNNING,correct
5a9bc842873cda0001dcb644,English,NA,Assigning Japanese words to the engish equivalents,1,4,(SPINE) TINGLING,http://honestcookingblog.com/soundfiles//pyera.mp3,B,1290,zokuzoku,zokuzoku_(SPINE) TINGLING,correct
5a9bc842873cda0001dcb644,English,NA,Assigning Japanese words to the engish equivalents,1,5,GRITTY,http://honestcookingblog.com/soundfiles//yiQgu.mp3,A,672,zyarizyari,zyarizyari_ROUGH,correct
5a9bc842873cda0001dcb644,English,NA,Assigning Japanese words to the engish equivalents,1,6,SLUGGISH,http://honestcookingblog.com/soundfiles//yiQha.mp3,B,826,naNgii,naNgii_SLUGGISH,correct
5a9bc842873cda0001dcb644,English,NA,Assigning Japanese words to the engish equivalents,1,7,SPLASHING,http://honestcookingblog.com/soundfiles//wuya.mp3,A,743,taputapu,taputapu_SLOSHING,correct
5a9bc842873cda0001dcb644,English,NA,Assigning Japanese words to the engish equivalents,1,8,LOUD,http://honestcookingblog.com/soundfiles//ena.mp3,A,807,ookii,ookii_LOUD,incorrect
5a9bc842873cda0001dcb644,English,NA,Assigning Japanese words to the engish equivalents,1,9,HARD,http://honestcookingblog.com/soundfiles//riru.mp3,B,706,katyikatyi,katyikatyi_HARD,incorrect
5a9bc842873cda0001dcb644,English,NA,Assigning Japanese words to the engish equivalents,1,10,LONG,http://honestcookingblog.com/soundfiles//yiruu.mp3,A,1132,nagai,nagai_LONG,incorrect
5a9bc842873cda0001dcb644,English,NA,Assigning Japanese words to the engish equivalents,1,11,QUIET,http://honestcookingblog.com/soundfiles//wuQ.mp3,A,714,syiiN,syiiN_QUIET,correct
5a9bc842873cda0001dcb644,English,NA,Assigning Japanese words to the engish equivalents,1,12,ACIDIC,http://honestcookingblog.com/soundfiles//pyuyiu.mp3,A,930,syibui,syibui_SOUR,incorrect
5a9bc842873cda0001dcb644,English,NA,Assigning Japanese words to the engish equivalents,1,13,BITTER,http://honestcookingblog.com/soundfiles//waruu.mp3,A,1491,nigai,nigai_BITTER,correct
5a9bc842873cda0001dcb644,English,NA,Assigning Japanese words to the engish equivalents,1,14,A LITTLE,http://honestcookingblog.com/soundfiles//yeme.mp3,B,1202,tyoQto,tyoQto_A LITTLE,correct
5a9bc842873cda0001dcb644,English,NA,Assigning Japanese words to the engish equivalents,1,15,OOZING,http://honestcookingblog.com/soundfiles//wara.mp3,A,975,guzyuguzyu,guzyuguzyu_OOZING,correct
5a9bc842873cda0001dcb644,English,NA,Assigning Japanese words to the engish equivalents,1,16,PINCHING,http://honestcookingblog.com/soundfiles//wupye.mp3,B,1177,tyiisoo,tyiisoo_TIGHT,correct
5a9bc842873cda0001dcb644,English,NA,Assigning Japanese words to the engish equivalents,1,17,EXHAUSTED,http://honestcookingblog.com/soundfiles//waQhe.mp3,B,1116,syiNdo,syiNdo_EXHAUSTED,incorrect
5a9bc842873cda0001dcb644,English,NA,Assigning Japanese words to the engish equivalents,1,18,SLENDER,http://honestcookingblog.com/soundfiles//newiwi.mp3,B,943,komaka,komaka_THIN,correct
5a9bc842873cda0001dcb644,English,NA,Assigning Japanese words to the engish equivalents,1,19,TREMBLING,http://honestcookingblog.com/soundfiles//huyi.mp3,A,1076,gatagata,gatagata_SHAKING,correct
5a9bc842873cda0001dcb644,English,NA,Assigning Japanese words to the engish equivalents,1,20,GRITTY,http://honestcookingblog.com/soundfiles//ewa.mp3,B,2195,ookii,ookii_ROUGH,correct
5a9bc842873cda0001dcb644,English,NA,Assigning Japanese words to the engish equivalents,1,21,ANNOYED,http://honestcookingblog.com/soundfiles//aQkiyuhewua.mp3,A,994,iratyimonai,iratyimonai_ANNOYED,correct
5a9bc842873cda0001dcb644,English,NA,Assigning Japanese words to the engish equivalents,1,22,WEARY,http://honestcookingblog.com/soundfiles//retyuu.mp3,A,799,kowai,kowai_EXHAUSTED,incorrect
5a9bc842873cda0001dcb644,English,NA,Assigning Japanese words to the engish equivalents,1,23,TIDY,http://honestcookingblog.com/soundfiles//hurepya.mp3,B,1172,migotsu,migotsu_CLEAN,incorrect
5a9bc842873cda0001dcb644,English,NA,Assigning Japanese words to the engish equivalents,1,24,GLUM,http://honestcookingblog.com/soundfiles//hiQguyu.mp3,B,1656,gurasyi,gurasyi_SAD,correct
5a9bc842873cda0001dcb644,English,NA,Assigning Japanese words to the engish equivalents,1,25,GLAD,http://honestcookingblog.com/soundfiles//aQpowu.mp3,A,771,uresyii,uresyii_GLAD,correct
5a9bc842873cda0001dcb644,English,NA,Assigning Japanese words to the engish equivalents,1,26,GRITTY,http://honestcookingblog.com/soundfiles//ipyua.mp3,A,1409,arai,arai_ROUGH,incorrect
5a9bc842873cda0001dcb644,English,NA,Assigning Japanese words to the engish equivalents,1,27,SLOW,http://honestcookingblog.com/soundfiles//yeQnapyiu.mp3,A,1551,doNkusai,doNkusai_SLOW,correct
5a9bc842873cda0001dcb644,English,NA,Assigning Japanese words to the engish equivalents,1,28,LOUD,http://honestcookingblog.com/soundfiles//pyoniQpiwuri.mp3,B,1889,sekarasyika,sekarasyika_LOUD,correct
5a9bc842873cda0001dcb644,English,NA,Assigning Japanese words to the engish equivalents,1,29,RAP (AT THE DOOR),http://honestcookingblog.com/soundfiles//wiyuwi.mp3,B,849,hadagu,hadagu_RAP (AT THE DOOR),incorrect
5a9bc842873cda0001dcb644,English,NA,Assigning Japanese words to the engish equivalents,1,30,SMOKY,http://honestcookingblog.com/soundfiles//nowiyiu.mp3,B,613,kebutai,kebutai_SMOKY,correct
5a9bc842873cda0001dcb644,English,NA,Assigning Japanese words to the engish equivalents,1,31,GLUM,http://honestcookingblog.com/soundfiles//yowapyuu.mp3,A,982,setsunai,setsunai_SAD,correct
5a9bc842873cda0001dcb644,English,NA,Assigning Japanese words to the engish equivalents,1,32,HARD,http://honestcookingblog.com/soundfiles//ruyua.mp3,B,1521,katai,katai_HARD,correct
5a9bc842873cda0001dcb644,English,NA,Assigning Japanese words to the engish equivalents,1,33,BOUNCING,http://honestcookingblog.com/soundfiles//neQ.mp3,A,790,pyoNpyoN,pyoNpyoN_BOUNCING,correct
5a9bc842873cda0001dcb644,English,NA,Assigning Japanese words to the engish equivalents,1,34,WHISPERING,http://honestcookingblog.com/soundfiles//nake.mp3,B,1836,hisohiso,hisohiso_WHISPERING,correct
60197cc53baef90915c0c121,English,N/A,I had to listen to two recordings of Japanese words and guess which one meant a particular word.,1,1,FLUFFY,http://honestcookingblog.com/soundfiles//rizyu.mp3,A,2443,fuwafuwa,fuwafuwa_FLUFFY,correct
60197cc53baef90915c0c121,English,N/A,I had to listen to two recordings of Japanese words and guess which one meant a particular word.,1,2,WOBBLING,http://honestcookingblog.com/soundfiles//tyekye.mp3,B,1440,yoroyoro,yoroyoro_WOBBLING,correct
60197cc53baef90915c0c121,English,N/A,I had to listen to two recordings of Japanese words and guess which one meant a particular word.,1,3,SLY,http://honestcookingblog.com/soundfiles//pyiQpiu.mp3,A,3832,zurui,zurui_CUNNING,correct
60197cc53baef90915c0c121,English,N/A,I had to listen to two recordings of Japanese words and guess which one meant a particular word.,1,4,(SPINE) TINGLING,http://honestcookingblog.com/soundfiles//pyera.mp3,B,751,zokuzoku,zokuzoku_(SPINE) TINGLING,correct
60197cc53baef90915c0c121,English,N/A,I had to listen to two recordings of Japanese words and guess which one meant a particular word.,1,5,ROUGH,http://honestcookingblog.com/soundfiles//yiQgu.mp3,A,2149,zyarizyari,zyarizyari_ROUGH,correct
60197cc53baef90915c0c121,English,N/A,I had to listen to two recordings of Japanese words and guess which one meant a particular word.,1,6,LETHARGIC,http://honestcookingblog.com/soundfiles//pyuQwu.mp3,B,1322,naNgii,naNgii_SLUGGISH,correct
60197cc53baef90915c0c121,English,N/A,I had to listen to two recordings of Japanese words and guess which one meant a particular word.,1,7,SPLASHING,http://honestcookingblog.com/soundfiles//wuya.mp3,A,1112,taputapu,taputapu_SLOSHING,correct
60197cc53baef90915c0c121,English,N/A,I had to listen to two recordings of Japanese words and guess which one meant a particular word.,1,8,LOUD,http://honestcookingblog.com/soundfiles//era.mp3,A,789,ookii,ookii_LOUD,incorrect
60197cc53baef90915c0c121,English,N/A,I had to listen to two recordings of Japanese words and guess which one meant a particular word.,1,9,HARD,http://honestcookingblog.com/soundfiles//wuya.mp3,A,2041,katyikatyi,katyikatyi_HARD,correct
60197cc53baef90915c0c121,English,N/A,I had to listen to two recordings of Japanese words and guess which one meant a particular word.,1,10,LONG,http://honestcookingblog.com/soundfiles//yiruu.mp3,A,891,nagai,nagai_LONG,incorrect
60197cc53baef90915c0c121,English,N/A,I had to listen to two recordings of Japanese words and guess which one meant a particular word.,1,11,QUIET,http://honestcookingblog.com/soundfiles//wuQ.mp3,B,1440,syiiN,syiiN_QUIET,incorrect
60197cc53baef90915c0c121,English,N/A,I had to listen to two recordings of Japanese words and guess which one meant a particular word.,1,12,SOUR,http://honestcookingblog.com/soundfiles//pyuyiu.mp3,B,1178,syibui,syibui_SOUR,correct
60197cc53baef90915c0c121,English,N/A,I had to listen to two recordings of Japanese words and guess which one meant a particular word.,1,13,BITTER,http://honestcookingblog.com/soundfiles//pyuhia.mp3,A,1251,nigai,nigai_BITTER,correct
60197cc53baef90915c0c121,English,N/A,I had to listen to two recordings of Japanese words and guess which one meant a particular word.,1,14,SLIGHTLY,http://honestcookingblog.com/soundfiles//reye.mp3,B,860,tyoQto,tyoQto_A LITTLE,correct
60197cc53baef90915c0c121,English,N/A,I had to listen to two recordings of Japanese words and guess which one meant a particular word.,1,15,DRIBBLING,http://honestcookingblog.com/soundfiles//wara.mp3,A,1800,guzyuguzyu,guzyuguzyu_OOZING,correct
60197cc53baef90915c0c121,English,N/A,I had to listen to two recordings of Japanese words and guess which one meant a particular word.,1,16,TIGHT,http://honestcookingblog.com/soundfiles//raye.mp3,A,1350,tyiisoo,tyiisoo_TIGHT,incorrect
60197cc53baef90915c0c121,English,N/A,I had to listen to two recordings of Japanese words and guess which one meant a particular word.,1,17,EXHAUSTED,http://honestcookingblog.com/soundfiles//yuQwe.mp3,A,2379,syiNdo,syiNdo_EXHAUSTED,correct
60197cc53baef90915c0c121,English,N/A,I had to listen to two recordings of Japanese words and guess which one meant a particular word.,1,18,SLENDER,http://honestcookingblog.com/soundfiles//newiwi.mp3,B,1298,komaka,komaka_THIN,correct
60197cc53baef90915c0c121,English,N/A,I had to listen to two recordings of Japanese words and guess which one meant a particular word.,1,19,TREMBLING,http://honestcookingblog.com/soundfiles//ruwi.mp3,A,1386,gatagata,gatagata_SHAKING,correct
60197cc53baef90915c0c121,English,N/A,I had to listen to two recordings of Japanese words and guess which one meant a particular word.,1,20,ROUGH,http://honestcookingblog.com/soundfiles//enu.mp3,B,3459,ookii,ookii_ROUGH,correct
60197cc53baef90915c0c121,English,N/A,I had to listen to two recordings of Japanese words and guess which one meant a particular word.,1,21,ANNOYED,http://honestcookingblog.com/soundfiles//upyuwarepyiu.mp3,A,1936,iratyimonai,iratyimonai_ANNOYED,correct
60197cc53baef90915c0c121,English,N/A,I had to listen to two recordings of Japanese words and guess which one meant a particular word.,1,22,EXHAUSTED,http://honestcookingblog.com/soundfiles//weQtuu.mp3,B,1882,kowai,kowai_EXHAUSTED,correct
60197cc53baef90915c0c121,English,N/A,I had to listen to two recordings of Japanese words and guess which one meant a particular word.,1,23,CLEAN,http://honestcookingblog.com/soundfiles//hurepya.mp3,B,1684,migotsu,migotsu_CLEAN,incorrect
60197cc53baef90915c0c121,English,N/A,I had to listen to two recordings of Japanese words and guess which one meant a particular word.,1,24,GLUM,http://honestcookingblog.com/soundfiles//hiQguyu.mp3,A,2340,gurasyi,gurasyi_SAD,incorrect
60197cc53baef90915c0c121,English,N/A,I had to listen to two recordings of Japanese words and guess which one meant a particular word.,1,25,HAPPY,http://honestcookingblog.com/soundfiles//aQpowu.mp3,B,2008,uresyii,uresyii_GLAD,incorrect
60197cc53baef90915c0c121,English,N/A,I had to listen to two recordings of Japanese words and guess which one meant a particular word.,1,26,COARSE,http://honestcookingblog.com/soundfiles//uQkiu.mp3,A,987,arai,arai_ROUGH,incorrect
60197cc53baef90915c0c121,English,N/A,I had to listen to two recordings of Japanese words and guess which one meant a particular word.,1,27,SLOW,http://honestcookingblog.com/soundfiles//yeQnapyiu.mp3,B,5289,doNkusai,doNkusai_SLOW,incorrect
60197cc53baef90915c0c121,English,N/A,I had to listen to two recordings of Japanese words and guess which one meant a particular word.,1,28,NOISY,http://honestcookingblog.com/soundfiles//yorukyupyanu.mp3,A,995,sekarasyika,sekarasyika_LOUD,incorrect
60197cc53baef90915c0c121,English,N/A,I had to listen to two recordings of Japanese words and guess which one meant a particular word.,1,29,RAP (AT THE DOOR),http://honestcookingblog.com/soundfiles//ruhira.mp3,A,868,hadagu,hadagu_RAP (AT THE DOOR),correct
60197cc53baef90915c0c121,English,N/A,I had to listen to two recordings of Japanese words and guess which one meant a particular word.,1,30,SMOKY,http://honestcookingblog.com/soundfiles//royiwiu.mp3,A,1324,kebutai,kebutai_SMOKY,incorrect
60197cc53baef90915c0c121,English,N/A,I had to listen to two recordings of Japanese words and guess which one meant a particular word.,1,31,SAD,http://honestcookingblog.com/soundfiles//pyoyiwia.mp3,A,1367,setsunai,setsunai_SAD,correct
60197cc53baef90915c0c121,English,N/A,I had to listen to two recordings of Japanese words and guess which one meant a particular word.,1,32,HARD,http://honestcookingblog.com/soundfiles//nuhua.mp3,B,1235,katai,katai_HARD,correct
60197cc53baef90915c0c121,English,N/A,I had to listen to two recordings of Japanese words and guess which one meant a particular word.,1,33,HOPPING,http://honestcookingblog.com/soundfiles//neQ.mp3,A,2257,pyoNpyoN,pyoNpyoN_BOUNCING,correct
60197cc53baef90915c0c121,English,N/A,I had to listen to two recordings of Japanese words and guess which one meant a particular word.,1,34,WHISPERING,http://honestcookingblog.com/soundfiles//nake.mp3,B,1196,hisohiso,hisohiso_WHISPERING,correct
60cb5df6bd722e4be50a6c42,English,n/a,Guessing the English translations of spoken Japanese words,1,1,FLUFFY,http://honestcookingblog.com/soundfiles//rizyu.mp3,A,6018,fuwafuwa,fuwafuwa_FLUFFY,correct
60cb5df6bd722e4be50a6c42,English,n/a,Guessing the English translations of spoken Japanese words,1,2,WOBBLING,http://honestcookingblog.com/soundfiles//tehe.mp3,B,3733,yoroyoro,yoroyoro_WOBBLING,correct
60cb5df6bd722e4be50a6c42,English,n/a,Guessing the English translations of spoken Japanese words,1,3,SLY,http://honestcookingblog.com/soundfiles//pyiQpiu.mp3,B,1088,zurui,zurui_CUNNING,incorrect
60cb5df6bd722e4be50a6c42,English,n/a,Guessing the English translations of spoken Japanese words,1,4,(SPINE) TINGLING,http://honestcookingblog.com/soundfiles//yewi.mp3,B,1376,zokuzoku,zokuzoku_(SPINE) TINGLING,correct
60cb5df6bd722e4be50a6c42,English,n/a,Guessing the English translations of spoken Japanese words,1,5,COARSE,http://honestcookingblog.com/soundfiles//ruQka.mp3,A,2245,zyarizyari,zyarizyari_ROUGH,correct
60cb5df6bd722e4be50a6c42,English,n/a,Guessing the English translations of spoken Japanese words,1,6,LETHARGIC,http://honestcookingblog.com/soundfiles//pyuQwu.mp3,B,1065,naNgii,naNgii_SLUGGISH,correct
60cb5df6bd722e4be50a6c42,English,n/a,Guessing the English translations of spoken Japanese words,1,7,SPLASHING,http://honestcookingblog.com/soundfiles//wuya.mp3,A,1110,taputapu,taputapu_SLOSHING,correct
60cb5df6bd722e4be50a6c42,English,n/a,Guessing the English translations of spoken Japanese words,1,8,NOISY,http://honestcookingblog.com/soundfiles//ewu.mp3,A,2271,ookii,ookii_LOUD,incorrect
60cb5df6bd722e4be50a6c42,English,n/a,Guessing the English translations of spoken Japanese words,1,9,HARD,http://honestcookingblog.com/soundfiles//wuya.mp3,B,1013,katyikatyi,katyikatyi_HARD,incorrect
60cb5df6bd722e4be50a6c42,English,n/a,Guessing the English translations of spoken Japanese words,1,10,LONG,http://honestcookingblog.com/soundfiles//pyuwia.mp3,B,1577,nagai,nagai_LONG,correct
60cb5df6bd722e4be50a6c42,English,n/a,Guessing the English translations of spoken Japanese words,1,11,QUIET,http://honestcookingblog.com/soundfiles//yaQ.mp3,A,1724,syiiN,syiiN_QUIET,correct
60cb5df6bd722e4be50a6c42,English,n/a,Guessing the English translations of spoken Japanese words,1,12,SOUR,http://honestcookingblog.com/soundfiles//wuwiu.mp3,A,1301,syibui,syibui_SOUR,incorrect
60cb5df6bd722e4be50a6c42,English,n/a,Guessing the English translations of spoken Japanese words,1,13,ACRID,http://honestcookingblog.com/soundfiles//pyuhia.mp3,B,1699,nigai,nigai_BITTER,incorrect
60cb5df6bd722e4be50a6c42,English,n/a,Guessing the English translations of spoken Japanese words,1,14,SLIGHTLY,http://honestcookingblog.com/soundfiles//wewe.mp3,B,2413,tyoQto,tyoQto_A LITTLE,correct
60cb5df6bd722e4be50a6c42,English,n/a,Guessing the English translations of spoken Japanese words,1,15,DRIBBLING,http://honestcookingblog.com/soundfiles//hawa.mp3,A,1271,guzyuguzyu,guzyuguzyu_OOZING,correct
60cb5df6bd722e4be50a6c42,English,n/a,Guessing the English translations of spoken Japanese words,1,16,TIGHT,http://honestcookingblog.com/soundfiles//wupye.mp3,A,1279,tyiisoo,tyiisoo_TIGHT,incorrect
60cb5df6bd722e4be50a6c42,English,n/a,Guessing the English translations of spoken Japanese words,1,17,WEARY,http://honestcookingblog.com/soundfiles//pyaQye.mp3,A,1781,syiNdo,syiNdo_EXHAUSTED,correct
60cb5df6bd722e4be50a6c42,English,n/a,Guessing the English translations of spoken Japanese words,1,18,THIN,http://honestcookingblog.com/soundfiles//wehuru.mp3,A,2368,komaka,komaka_THIN,incorrect
60cb5df6bd722e4be50a6c42,English,n/a,Guessing the English translations of spoken Japanese words,1,19,TREMBLING,http://honestcookingblog.com/soundfiles//wimu.mp3,A,1905,gatagata,gatagata_SHAKING,correct
60cb5df6bd722e4be50a6c42,English,n/a,Guessing the English translations of spoken Japanese words,1,20,COARSE,http://honestcookingblog.com/soundfiles//ewa.mp3,B,1539,ookii,ookii_ROUGH,correct
60cb5df6bd722e4be50a6c42,English,n/a,Guessing the English translations of spoken Japanese words,1,21,IMPATIENT,http://honestcookingblog.com/soundfiles//upyuwarepyiu.mp3,A,1484,iratyimonai,iratyimonai_ANNOYED,correct
60cb5df6bd722e4be50a6c42,English,n/a,Guessing the English translations of spoken Japanese words,1,22,TIRED,http://honestcookingblog.com/soundfiles//retyuu.mp3,A,1668,kowai,kowai_EXHAUSTED,incorrect
60cb5df6bd722e4be50a6c42,English,n/a,Guessing the English translations of spoken Japanese words,1,23,CLEAN,http://honestcookingblog.com/soundfiles//hurepya.mp3,B,998,migotsu,migotsu_CLEAN,incorrect
60cb5df6bd722e4be50a6c42,English,n/a,Guessing the English translations of spoken Japanese words,1,24,SAD,http://honestcookingblog.com/soundfiles//hiQguyu.mp3,A,2033,gurasyi,gurasyi_SAD,incorrect
60cb5df6bd722e4be50a6c42,English,n/a,Guessing the English translations of spoken Japanese words,1,25,GLAD,http://honestcookingblog.com/soundfiles//akyopyu.mp3,A,2688,uresyii,uresyii_GLAD,correct
60cb5df6bd722e4be50a6c42,English,n/a,Guessing the English translations of spoken Japanese words,1,26,COARSE,http://honestcookingblog.com/soundfiles//iQgua.mp3,A,2634,arai,arai_ROUGH,incorrect
60cb5df6bd722e4be50a6c42,English,n/a,Guessing the English translations of spoken Japanese words,1,27,SLOW,http://honestcookingblog.com/soundfiles//weQwiwua.mp3,A,1422,doNkusai,doNkusai_SLOW,correct
60cb5df6bd722e4be50a6c42,English,n/a,Guessing the English translations of spoken Japanese words,1,28,NOISY,http://honestcookingblog.com/soundfiles//pyoniQpiwuri.mp3,A,1773,sekarasyika,sekarasyika_LOUD,incorrect
60cb5df6bd722e4be50a6c42,English,n/a,Guessing the English translations of spoken Japanese words,1,29,RAP (AT THE DOOR),http://honestcookingblog.com/soundfiles//pyiwuhi.mp3,A,2269,hadagu,hadagu_RAP (AT THE DOOR),correct
60cb5df6bd722e4be50a6c42,English,n/a,Guessing the English translations of spoken Japanese words,1,30,SMOKY,http://honestcookingblog.com/soundfiles//royiwiu.mp3,A,2571,kebutai,kebutai_SMOKY,incorrect
60cb5df6bd722e4be50a6c42,English,n/a,Guessing the English translations of spoken Japanese words,1,31,GLUM,http://honestcookingblog.com/soundfiles//yowapyuu.mp3,A,1090,setsunai,setsunai_SAD,correct
60cb5df6bd722e4be50a6c42,English,n/a,Guessing the English translations of spoken Japanese words,1,32,HARD,http://honestcookingblog.com/soundfiles//ruyua.mp3,A,1184,katai,katai_HARD,incorrect
60cb5df6bd722e4be50a6c42,English,n/a,Guessing the English translations of spoken Japanese words,1,33,HOPPING,http://honestcookingblog.com/soundfiles//neQ.mp3,A,1196,pyoNpyoN,pyoNpyoN_BOUNCING,correct
60cb5df6bd722e4be50a6c42,English,n/a,Guessing the English translations of spoken Japanese words,1,34,WHISPERING,http://honestcookingblog.com/soundfiles//dzame.mp3,B,1656,hisohiso,hisohiso_WHISPERING,correct
56e344c0e414dc000c8b4268,english,none,translating simple words from japanese to english.,1,1,FLUFFY,http://honestcookingblog.com/soundfiles//nitsu.mp3,A,4616,fuwafuwa,fuwafuwa_FLUFFY,correct
56e344c0e414dc000c8b4268,english,none,translating simple words from japanese to english.,1,2,WOBBLING,http://honestcookingblog.com/soundfiles//tyekye.mp3,B,2209,yoroyoro,yoroyoro_WOBBLING,correct
56e344c0e414dc000c8b4268,english,none,translating simple words from japanese to english.,1,3,CUNNING,http://honestcookingblog.com/soundfiles//wapyaa.mp3,B,2047,zurui,zurui_CUNNING,incorrect
56e344c0e414dc000c8b4268,english,none,translating simple words from japanese to english.,1,4,SHIVERS (DOWN YOUR SPINE),http://honestcookingblog.com/soundfiles//pyera.mp3,A,2065,zokuzoku,zokuzoku_(SPINE) TINGLING,incorrect
56e344c0e414dc000c8b4268,english,none,translating simple words from japanese to english.,1,5,ROUGH,http://honestcookingblog.com/soundfiles//wikyu.mp3,A,3703,zyarizyari,zyarizyari_ROUGH,correct
56e344c0e414dc000c8b4268,english,none,translating simple words from japanese to english.,1,6,LETHARGIC,http://honestcookingblog.com/soundfiles//yiQha.mp3,B,2365,naNgii,naNgii_SLUGGISH,correct
56e344c0e414dc000c8b4268,english,none,translating simple words from japanese to english.,1,7,SLOSHING,http://honestcookingblog.com/soundfiles//wuya.mp3,A,1944,taputapu,taputapu_SLOSHING,correct
56e344c0e414dc000c8b4268,english,none,translating simple words from japanese to english.,1,8,LOUD,http://honestcookingblog.com/soundfiles//ena.mp3,A,3553,ookii,ookii_LOUD,incorrect
56e344c0e414dc000c8b4268,english,none,translating simple words from japanese to english.,1,9,HARD,http://honestcookingblog.com/soundfiles//wuya.mp3,B,2381,katyikatyi,katyikatyi_HARD,incorrect
56e344c0e414dc000c8b4268,english,none,translating simple words from japanese to english.,1,10,LONG,http://honestcookingblog.com/soundfiles//pyuwia.mp3,A,2235,nagai,nagai_LONG,incorrect
56e344c0e414dc000c8b4268,english,none,translating simple words from japanese to english.,1,11,QUIET,http://honestcookingblog.com/soundfiles//wuQ.mp3,A,3701,syiiN,syiiN_QUIET,correct
56e344c0e414dc000c8b4268,english,none,translating simple words from japanese to english.,1,12,SOUR,http://honestcookingblog.com/soundfiles//wuwiu.mp3,A,3644,syibui,syibui_SOUR,incorrect
56e344c0e414dc000c8b4268,english,none,translating simple words from japanese to english.,1,13,ACRID,http://honestcookingblog.com/soundfiles//pyuhia.mp3,B,3153,nigai,nigai_BITTER,incorrect
56e344c0e414dc000c8b4268,english,none,translating simple words from japanese to english.,1,14,SLIGHTLY,http://honestcookingblog.com/soundfiles//wewe.mp3,A,1926,tyoQto,tyoQto_A LITTLE,incorrect
56e344c0e414dc000c8b4268,english,none,translating simple words from japanese to english.,1,15,DRIBBLING,http://honestcookingblog.com/soundfiles//wara.mp3,A,3100,guzyuguzyu,guzyuguzyu_OOZING,correct
56e344c0e414dc000c8b4268,english,none,translating simple words from japanese to english.,1,16,TIGHT,http://honestcookingblog.com/soundfiles//wupye.mp3,A,2722,tyiisoo,tyiisoo_TIGHT,incorrect
56e344c0e414dc000c8b4268,english,none,translating simple words from japanese to english.,1,17,WEARY,http://honestcookingblog.com/soundfiles//yuQwe.mp3,A,1919,syiNdo,syiNdo_EXHAUSTED,correct
56e344c0e414dc000c8b4268,english,none,translating simple words from japanese to english.,1,18,SLENDER,http://honestcookingblog.com/soundfiles//wehuru.mp3,B,2534,komaka,komaka_THIN,correct
56e344c0e414dc000c8b4268,english,none,translating simple words from japanese to english.,1,19,SHAKING,http://honestcookingblog.com/soundfiles//huyi.mp3,A,2222,gatagata,gatagata_SHAKING,correct
56e344c0e414dc000c8b4268,english,none,translating simple words from japanese to english.,1,20,GRITTY,http://honestcookingblog.com/soundfiles//eru.mp3,B,2931,ookii,ookii_ROUGH,correct
56e344c0e414dc000c8b4268,english,none,translating simple words from japanese to english.,1,21,IMPATIENT,http://honestcookingblog.com/soundfiles//aQkiyuhewua.mp3,A,4444,iratyimonai,iratyimonai_ANNOYED,correct
56e344c0e414dc000c8b4268,english,none,translating simple words from japanese to english.,1,22,EXHAUSTED,http://honestcookingblog.com/soundfiles//retyuu.mp3,B,11397,kowai,kowai_EXHAUSTED,correct
56e344c0e414dc000c8b4268,english,none,translating simple words from japanese to english.,1,23,CLEAN,http://honestcookingblog.com/soundfiles//hurepya.mp3,B,3477,migotsu,migotsu_CLEAN,incorrect
56e344c0e414dc000c8b4268,english,none,translating simple words from japanese to english.,1,24,GLUM,http://honestcookingblog.com/soundfiles//wipyupyu.mp3,B,2129,gurasyi,gurasyi_SAD,correct
56e344c0e414dc000c8b4268,english,none,translating simple words from japanese to english.,1,25,GLAD,http://honestcookingblog.com/soundfiles//ipyoya.mp3,A,2881,uresyii,uresyii_GLAD,correct
56e344c0e414dc000c8b4268,english,none,translating simple words from japanese to english.,1,26,COARSE,http://honestcookingblog.com/soundfiles//ipyua.mp3,B,2653,arai,arai_ROUGH,correct
56e344c0e414dc000c8b4268,english,none,translating simple words from japanese to english.,1,27,SLOW,http://honestcookingblog.com/soundfiles//yeQnapyiu.mp3,A,6129,doNkusai,doNkusai_SLOW,correct
56e344c0e414dc000c8b4268,english,none,translating simple words from japanese to english.,1,28,LOUD,http://honestcookingblog.com/soundfiles//pyoniQpiwuri.mp3,B,2101,sekarasyika,sekarasyika_LOUD,correct
56e344c0e414dc000c8b4268,english,none,translating simple words from japanese to english.,1,29,RAP (AT THE DOOR),http://honestcookingblog.com/soundfiles//ruhira.mp3,B,2379,hadagu,hadagu_RAP (AT THE DOOR),incorrect
56e344c0e414dc000c8b4268,english,none,translating simple words from japanese to english.,1,30,SMOKY,http://honestcookingblog.com/soundfiles//nowiyiu.mp3,B,3477,kebutai,kebutai_SMOKY,correct
56e344c0e414dc000c8b4268,english,none,translating simple words from japanese to english.,1,31,SAD,http://honestcookingblog.com/soundfiles//pyoyiwia.mp3,A,3117,setsunai,setsunai_SAD,correct
56e344c0e414dc000c8b4268,english,none,translating simple words from japanese to english.,1,32,HARD,http://honestcookingblog.com/soundfiles//zuwua.mp3,B,3134,katai,katai_HARD,correct
56e344c0e414dc000c8b4268,english,none,translating simple words from japanese to english.,1,33,HOPPING,http://honestcookingblog.com/soundfiles//reQ.mp3,A,4397,pyoNpyoN,pyoNpyoN_BOUNCING,correct
56e344c0e414dc000c8b4268,english,none,translating simple words from japanese to english.,1,34,WHISPERING,http://honestcookingblog.com/soundfiles//dzame.mp3,B,1947,hisohiso,hisohiso_WHISPERING,correct
60172619600dc1955ba05f5c,ENGLISH,none,listening to a word in japanese and guessing which english word is being said,1,1,FLUFFY,http://honestcookingblog.com/soundfiles//nitsu.mp3,A,3729,fuwafuwa,fuwafuwa_FLUFFY,correct
60172619600dc1955ba05f5c,ENGLISH,none,listening to a word in japanese and guessing which english word is being said,1,2,WOBBLING,http://honestcookingblog.com/soundfiles//tyekye.mp3,B,2100,yoroyoro,yoroyoro_WOBBLING,correct
60172619600dc1955ba05f5c,ENGLISH,none,listening to a word in japanese and guessing which english word is being said,1,3,CUNNING,http://honestcookingblog.com/soundfiles//pyiQpiu.mp3,A,3370,zurui,zurui_CUNNING,correct
60172619600dc1955ba05f5c,ENGLISH,none,listening to a word in japanese and guessing which english word is being said,1,4,SHIVERS (DOWN YOUR SPINE),http://honestcookingblog.com/soundfiles//yewi.mp3,A,1400,zokuzoku,zokuzoku_(SPINE) TINGLING,incorrect
60172619600dc1955ba05f5c,ENGLISH,none,listening to a word in japanese and guessing which english word is being said,1,5,GRITTY,http://honestcookingblog.com/soundfiles//wikyu.mp3,B,1540,zyarizyari,zyarizyari_ROUGH,incorrect
60172619600dc1955ba05f5c,ENGLISH,none,listening to a word in japanese and guessing which english word is being said,1,6,SLUGGISH,http://honestcookingblog.com/soundfiles//pyuQwu.mp3,A,1130,naNgii,naNgii_SLUGGISH,incorrect
60172619600dc1955ba05f5c,ENGLISH,none,listening to a word in japanese and guessing which english word is being said,1,7,SPLASHING,http://honestcookingblog.com/soundfiles//wuya.mp3,B,4264,taputapu,taputapu_SLOSHING,incorrect
60172619600dc1955ba05f5c,ENGLISH,none,listening to a word in japanese and guessing which english word is being said,1,8,NOISY,http://honestcookingblog.com/soundfiles//era.mp3,B,1279,ookii,ookii_LOUD,correct
60172619600dc1955ba05f5c,ENGLISH,none,listening to a word in japanese and guessing which english word is being said,1,9,HARD,http://honestcookingblog.com/soundfiles//nuwa.mp3,B,1206,katyikatyi,katyikatyi_HARD,incorrect
60172619600dc1955ba05f5c,ENGLISH,none,listening to a word in japanese and guessing which english word is being said,1,10,LONG,http://honestcookingblog.com/soundfiles//wuhia.mp3,A,1321,nagai,nagai_LONG,incorrect
60172619600dc1955ba05f5c,ENGLISH,none,listening to a word in japanese and guessing which english word is being said,1,11,QUIET,http://honestcookingblog.com/soundfiles//pyaQ.mp3,B,1292,syiiN,syiiN_QUIET,incorrect
60172619600dc1955ba05f5c,ENGLISH,none,listening to a word in japanese and guessing which english word is being said,1,12,SOUR,http://honestcookingblog.com/soundfiles//pyuyiu.mp3,B,1205,syibui,syibui_SOUR,correct
60172619600dc1955ba05f5c,ENGLISH,none,listening to a word in japanese and guessing which english word is being said,1,13,BITTER,http://honestcookingblog.com/soundfiles//pyuhia.mp3,A,2539,nigai,nigai_BITTER,correct
60172619600dc1955ba05f5c,ENGLISH,none,listening to a word in japanese and guessing which english word is being said,1,14,SLIGHTLY,http://honestcookingblog.com/soundfiles//reye.mp3,A,1613,tyoQto,tyoQto_A LITTLE,incorrect
60172619600dc1955ba05f5c,ENGLISH,none,listening to a word in japanese and guessing which english word is being said,1,15,OOZING,http://honestcookingblog.com/soundfiles//riyi.mp3,A,931,guzyuguzyu,guzyuguzyu_OOZING,correct
60172619600dc1955ba05f5c,ENGLISH,none,listening to a word in japanese and guessing which english word is being said,1,16,TIGHT,http://honestcookingblog.com/soundfiles//yuwe.mp3,A,1119,tyiisoo,tyiisoo_TIGHT,incorrect
60172619600dc1955ba05f5c,ENGLISH,none,listening to a word in japanese and guessing which english word is being said,1,17,WEARY,http://honestcookingblog.com/soundfiles//pyaQye.mp3,B,915,syiNdo,syiNdo_EXHAUSTED,incorrect
60172619600dc1955ba05f5c,ENGLISH,none,listening to a word in japanese and guessing which english word is being said,1,18,SLENDER,http://honestcookingblog.com/soundfiles//reyunu.mp3,A,1054,komaka,komaka_THIN,incorrect
60172619600dc1955ba05f5c,ENGLISH,none,listening to a word in japanese and guessing which english word is being said,1,19,TREMBLING,http://honestcookingblog.com/soundfiles//wimu.mp3,B,1189,gatagata,gatagata_SHAKING,incorrect
60172619600dc1955ba05f5c,ENGLISH,none,listening to a word in japanese and guessing which english word is being said,1,20,COARSE,http://honestcookingblog.com/soundfiles//enu.mp3,A,1205,ookii,ookii_ROUGH,incorrect
60172619600dc1955ba05f5c,ENGLISH,none,listening to a word in japanese and guessing which english word is being said,1,21,ANNOYED,http://honestcookingblog.com/soundfiles//akyiruweyua.mp3,B,1689,iratyimonai,iratyimonai_ANNOYED,incorrect
60172619600dc1955ba05f5c,ENGLISH,none,listening to a word in japanese and guessing which english word is being said,1,22,TIRED,http://honestcookingblog.com/soundfiles//neQdia.mp3,B,2912,kowai,kowai_EXHAUSTED,correct
60172619600dc1955ba05f5c,ENGLISH,none,listening to a word in japanese and guessing which english word is being said,1,23,CLEAN,http://honestcookingblog.com/soundfiles//waweyi.mp3,B,2181,migotsu,migotsu_CLEAN,incorrect
60172619600dc1955ba05f5c,ENGLISH,none,listening to a word in japanese and guessing which english word is being said,1,24,GLUM,http://honestcookingblog.com/soundfiles//hiQguyu.mp3,A,962,gurasyi,gurasyi_SAD,incorrect
60172619600dc1955ba05f5c,ENGLISH,none,listening to a word in japanese and guessing which english word is being said,1,25,HAPPY,http://honestcookingblog.com/soundfiles//akyopyu.mp3,B,2044,uresyii,uresyii_GLAD,incorrect
60172619600dc1955ba05f5c,ENGLISH,none,listening to a word in japanese and guessing which english word is being said,1,26,ROUGH,http://honestcookingblog.com/soundfiles//ipyua.mp3,B,2214,arai,arai_ROUGH,correct
60172619600dc1955ba05f5c,ENGLISH,none,listening to a word in japanese and guessing which english word is being said,1,27,SLOW,http://honestcookingblog.com/soundfiles//yeQnapyiu.mp3,A,1262,doNkusai,doNkusai_SLOW,correct
60172619600dc1955ba05f5c,ENGLISH,none,listening to a word in japanese and guessing which english word is being said,1,28,LOUD,http://honestcookingblog.com/soundfiles//pyoniQpiwuri.mp3,B,2196,sekarasyika,sekarasyika_LOUD,correct
60172619600dc1955ba05f5c,ENGLISH,none,listening to a word in japanese and guessing which english word is being said,1,29,RAP (AT THE DOOR),http://honestcookingblog.com/soundfiles//wiyuwi.mp3,A,2118,hadagu,hadagu_RAP (AT THE DOOR),correct
60172619600dc1955ba05f5c,ENGLISH,none,listening to a word in japanese and guessing which english word is being said,1,30,SMOKY,http://honestcookingblog.com/soundfiles//woramua.mp3,A,1620,kebutai,kebutai_SMOKY,incorrect
60172619600dc1955ba05f5c,ENGLISH,none,listening to a word in japanese and guessing which english word is being said,1,31,GLUM,http://honestcookingblog.com/soundfiles//wopyiyia.mp3,B,1810,setsunai,setsunai_SAD,incorrect
60172619600dc1955ba05f5c,ENGLISH,none,listening to a word in japanese and guessing which english word is being said,1,32,HARD,http://honestcookingblog.com/soundfiles//ruyua.mp3,B,1605,katai,katai_HARD,correct
60172619600dc1955ba05f5c,ENGLISH,none,listening to a word in japanese and guessing which english word is being said,1,33,BOUNCING,http://honestcookingblog.com/soundfiles//zeQ.mp3,A,1069,pyoNpyoN,pyoNpyoN_BOUNCING,correct
60172619600dc1955ba05f5c,ENGLISH,none,listening to a word in japanese and guessing which english word is being said,1,34,WHISPERING,http://honestcookingblog.com/soundfiles//nake.mp3,A,5973,hisohiso,hisohiso_WHISPERING,incorrect
604a38db988f1f528797ae1b,English,N/A,I was guessing the meaning of different Japanese words,1,1,FLUFFY,http://honestcookingblog.com/soundfiles//gityu.mp3,A,1180,fuwafuwa,fuwafuwa_FLUFFY,correct
604a38db988f1f528797ae1b,English,N/A,I was guessing the meaning of different Japanese words,1,2,WOBBLING,http://honestcookingblog.com/soundfiles//tseke.mp3,B,946,yoroyoro,yoroyoro_WOBBLING,correct
604a38db988f1f528797ae1b,English,N/A,I was guessing the meaning of different Japanese words,1,3,CUNNING,http://honestcookingblog.com/soundfiles//yaQkaa.mp3,B,1252,zurui,zurui_CUNNING,incorrect
604a38db988f1f528797ae1b,English,N/A,I was guessing the meaning of different Japanese words,1,4,SHIVERS (DOWN YOUR SPINE),http://honestcookingblog.com/soundfiles//pyera.mp3,B,1028,zokuzoku,zokuzoku_(SPINE) TINGLING,correct
604a38db988f1f528797ae1b,English,N/A,I was guessing the meaning of different Japanese words,1,5,ROUGH,http://honestcookingblog.com/soundfiles//wikyu.mp3,B,1121,zyarizyari,zyarizyari_ROUGH,incorrect
604a38db988f1f528797ae1b,English,N/A,I was guessing the meaning of different Japanese words,1,6,SLUGGISH,http://honestcookingblog.com/soundfiles//wuQru.mp3,A,3170,naNgii,naNgii_SLUGGISH,incorrect
604a38db988f1f528797ae1b,English,N/A,I was guessing the meaning of different Japanese words,1,7,SPLASHING,http://honestcookingblog.com/soundfiles//wuya.mp3,A,735,taputapu,taputapu_SLOSHING,correct
604a38db988f1f528797ae1b,English,N/A,I was guessing the meaning of different Japanese words,1,8,LOUD,http://honestcookingblog.com/soundfiles//ena.mp3,A,4012,ookii,ookii_LOUD,incorrect
604a38db988f1f528797ae1b,English,N/A,I was guessing the meaning of different Japanese words,1,9,HARD,http://honestcookingblog.com/soundfiles//nuwa.mp3,A,3179,katyikatyi,katyikatyi_HARD,correct
604a38db988f1f528797ae1b,English,N/A,I was guessing the meaning of different Japanese words,1,10,LONG,http://honestcookingblog.com/soundfiles//pyuwia.mp3,B,1381,nagai,nagai_LONG,correct
604a38db988f1f528797ae1b,English,N/A,I was guessing the meaning of different Japanese words,1,11,QUIET,http://honestcookingblog.com/soundfiles//yaQ.mp3,A,1065,syiiN,syiiN_QUIET,correct
604a38db988f1f528797ae1b,English,N/A,I was guessing the meaning of different Japanese words,1,12,ACIDIC,http://honestcookingblog.com/soundfiles//wuwiu.mp3,B,866,syibui,syibui_SOUR,correct
604a38db988f1f528797ae1b,English,N/A,I was guessing the meaning of different Japanese words,1,13,BITTER,http://honestcookingblog.com/soundfiles//pyuhia.mp3,A,770,nigai,nigai_BITTER,correct
604a38db988f1f528797ae1b,English,N/A,I was guessing the meaning of different Japanese words,1,14,SLIGHTLY,http://honestcookingblog.com/soundfiles//yeme.mp3,B,3167,tyoQto,tyoQto_A LITTLE,correct
604a38db988f1f528797ae1b,English,N/A,I was guessing the meaning of different Japanese words,1,15,OOZING,http://honestcookingblog.com/soundfiles//riyi.mp3,A,744,guzyuguzyu,guzyuguzyu_OOZING,correct
604a38db988f1f528797ae1b,English,N/A,I was guessing the meaning of different Japanese words,1,16,TIGHT,http://honestcookingblog.com/soundfiles//wupye.mp3,B,1517,tyiisoo,tyiisoo_TIGHT,correct
604a38db988f1f528797ae1b,English,N/A,I was guessing the meaning of different Japanese words,1,17,WEARY,http://honestcookingblog.com/soundfiles//waQhe.mp3,A,853,syiNdo,syiNdo_EXHAUSTED,correct
604a38db988f1f528797ae1b,English,N/A,I was guessing the meaning of different Japanese words,1,18,SLENDER,http://honestcookingblog.com/soundfiles//reyunu.mp3,A,1080,komaka,komaka_THIN,incorrect
604a38db988f1f528797ae1b,English,N/A,I was guessing the meaning of different Japanese words,1,19,SHAKING,http://honestcookingblog.com/soundfiles//huyi.mp3,A,918,gatagata,gatagata_SHAKING,correct
604a38db988f1f528797ae1b,English,N/A,I was guessing the meaning of different Japanese words,1,20,COARSE,http://honestcookingblog.com/soundfiles//ewa.mp3,B,1428,ookii,ookii_ROUGH,correct
604a38db988f1f528797ae1b,English,N/A,I was guessing the meaning of different Japanese words,1,21,ANNOYED,http://honestcookingblog.com/soundfiles//aQkiyuhewua.mp3,B,792,iratyimonai,iratyimonai_ANNOYED,incorrect
604a38db988f1f528797ae1b,English,N/A,I was guessing the meaning of different Japanese words,1,22,EXHAUSTED,http://honestcookingblog.com/soundfiles//neQdia.mp3,A,3885,kowai,kowai_EXHAUSTED,incorrect
604a38db988f1f528797ae1b,English,N/A,I was guessing the meaning of different Japanese words,1,23,CLEAN,http://honestcookingblog.com/soundfiles//ruhewa.mp3,B,889,migotsu,migotsu_CLEAN,incorrect
604a38db988f1f528797ae1b,English,N/A,I was guessing the meaning of different Japanese words,1,24,SAD,http://honestcookingblog.com/soundfiles//wipyupyu.mp3,A,2194,gurasyi,gurasyi_SAD,incorrect
604a38db988f1f528797ae1b,English,N/A,I was guessing the meaning of different Japanese words,1,25,GLAD,http://honestcookingblog.com/soundfiles//akyopyu.mp3,A,649,uresyii,uresyii_GLAD,correct
604a38db988f1f528797ae1b,English,N/A,I was guessing the meaning of different Japanese words,1,26,ROUGH,http://honestcookingblog.com/soundfiles//uQkiu.mp3,B,1172,arai,arai_ROUGH,correct
604a38db988f1f528797ae1b,English,N/A,I was guessing the meaning of different Japanese words,1,27,SLOW,http://honestcookingblog.com/soundfiles//heQrayiu.mp3,A,1261,doNkusai,doNkusai_SLOW,correct
604a38db988f1f528797ae1b,English,N/A,I was guessing the meaning of different Japanese words,1,28,LOUD,http://honestcookingblog.com/soundfiles//wowikiyuwi.mp3,A,5168,sekarasyika,sekarasyika_LOUD,incorrect
604a38db988f1f528797ae1b,English,N/A,I was guessing the meaning of different Japanese words,1,29,KNOCK (AT THE DOOR),http://honestcookingblog.com/soundfiles//wiyuwi.mp3,A,1987,hadagu,hadagu_RAP (AT THE DOOR),correct
604a38db988f1f528797ae1b,English,N/A,I was guessing the meaning of different Japanese words,1,30,SMOKY,http://honestcookingblog.com/soundfiles//woramua.mp3,A,2230,kebutai,kebutai_SMOKY,incorrect
604a38db988f1f528797ae1b,English,N/A,I was guessing the meaning of different Japanese words,1,31,GLUM,http://honestcookingblog.com/soundfiles//yowapyuu.mp3,B,1490,setsunai,setsunai_SAD,incorrect
604a38db988f1f528797ae1b,English,N/A,I was guessing the meaning of different Japanese words,1,32,HARD,http://honestcookingblog.com/soundfiles//zuwua.mp3,B,1700,katai,katai_HARD,correct
604a38db988f1f528797ae1b,English,N/A,I was guessing the meaning of different Japanese words,1,33,BOUNCING,http://honestcookingblog.com/soundfiles//zeQ.mp3,A,2141,pyoNpyoN,pyoNpyoN_BOUNCING,correct
604a38db988f1f528797ae1b,English,N/A,I was guessing the meaning of different Japanese words,1,34,WHISPERING,http://honestcookingblog.com/soundfiles//dzame.mp3,B,1573,hisohiso,hisohiso_WHISPERING,correct
5a62207c13898300014b1fbb,English,none,Guessing the meaning of Japanese words,1,1,FLUFFY,http://honestcookingblog.com/soundfiles//gityu.mp3,A,6362,fuwafuwa,fuwafuwa_FLUFFY,correct
5a62207c13898300014b1fbb,English,none,Guessing the meaning of Japanese words,1,2,WOBBLING,http://honestcookingblog.com/soundfiles//tseke.mp3,B,1635,yoroyoro,yoroyoro_WOBBLING,correct
5a62207c13898300014b1fbb,English,none,Guessing the meaning of Japanese words,1,3,CUNNING,http://honestcookingblog.com/soundfiles//wapyaa.mp3,A,2529,zurui,zurui_CUNNING,correct
5a62207c13898300014b1fbb,English,none,Guessing the meaning of Japanese words,1,4,SHIVERS (DOWN YOUR SPINE),http://honestcookingblog.com/soundfiles//weni.mp3,B,1483,zokuzoku,zokuzoku_(SPINE) TINGLING,correct
5a62207c13898300014b1fbb,English,none,Guessing the meaning of Japanese words,1,5,COARSE,http://honestcookingblog.com/soundfiles//ruQka.mp3,B,4291,zyarizyari,zyarizyari_ROUGH,incorrect
5a62207c13898300014b1fbb,English,none,Guessing the meaning of Japanese words,1,6,SLUGGISH,http://honestcookingblog.com/soundfiles//pyuQwu.mp3,B,1570,naNgii,naNgii_SLUGGISH,correct
5a62207c13898300014b1fbb,English,none,Guessing the meaning of Japanese words,1,7,SPLASHING,http://honestcookingblog.com/soundfiles//yiwi.mp3,A,1859,taputapu,taputapu_SLOSHING,correct
5a62207c13898300014b1fbb,English,none,Guessing the meaning of Japanese words,1,8,NOISY,http://honestcookingblog.com/soundfiles//ena.mp3,B,1622,ookii,ookii_LOUD,correct
5a62207c13898300014b1fbb,English,none,Guessing the meaning of Japanese words,1,9,HARD,http://honestcookingblog.com/soundfiles//wuya.mp3,B,2188,katyikatyi,katyikatyi_HARD,incorrect
5a62207c13898300014b1fbb,English,none,Guessing the meaning of Japanese words,1,10,LONG,http://honestcookingblog.com/soundfiles//wuhia.mp3,B,2529,nagai,nagai_LONG,correct
5a62207c13898300014b1fbb,English,none,Guessing the meaning of Japanese words,1,11,QUIET,http://honestcookingblog.com/soundfiles//yaQ.mp3,A,2746,syiiN,syiiN_QUIET,correct
5a62207c13898300014b1fbb,English,none,Guessing the meaning of Japanese words,1,12,ACIDIC,http://honestcookingblog.com/soundfiles//wuwiu.mp3,B,1510,syibui,syibui_SOUR,correct
5a62207c13898300014b1fbb,English,none,Guessing the meaning of Japanese words,1,13,BITTER,http://honestcookingblog.com/soundfiles//yawuu.mp3,B,5068,nigai,nigai_BITTER,incorrect
5a62207c13898300014b1fbb,English,none,Guessing the meaning of Japanese words,1,14,SLIGHTLY,http://honestcookingblog.com/soundfiles//wewe.mp3,B,3183,tyoQto,tyoQto_A LITTLE,correct
5a62207c13898300014b1fbb,English,none,Guessing the meaning of Japanese words,1,15,DRIBBLING,http://honestcookingblog.com/soundfiles//wara.mp3,A,1523,guzyuguzyu,guzyuguzyu_OOZING,correct
5a62207c13898300014b1fbb,English,none,Guessing the meaning of Japanese words,1,16,TIGHT,http://honestcookingblog.com/soundfiles//wupye.mp3,B,1456,tyiisoo,tyiisoo_TIGHT,correct
5a62207c13898300014b1fbb,English,none,Guessing the meaning of Japanese words,1,17,EXHAUSTED,http://honestcookingblog.com/soundfiles//yuQwe.mp3,A,3150,syiNdo,syiNdo_EXHAUSTED,correct
5a62207c13898300014b1fbb,English,none,Guessing the meaning of Japanese words,1,18,SLENDER,http://honestcookingblog.com/soundfiles//reyunu.mp3,B,3148,komaka,komaka_THIN,correct
5a62207c13898300014b1fbb,English,none,Guessing the meaning of Japanese words,1,19,SHAKING,http://honestcookingblog.com/soundfiles//ruwi.mp3,A,1100,gatagata,gatagata_SHAKING,correct
5a62207c13898300014b1fbb,English,none,Guessing the meaning of Japanese words,1,20,ROUGH,http://honestcookingblog.com/soundfiles//enu.mp3,B,2398,ookii,ookii_ROUGH,correct
5a62207c13898300014b1fbb,English,none,Guessing the meaning of Japanese words,1,21,ANNOYED,http://honestcookingblog.com/soundfiles//aQkiyuhewua.mp3,A,1481,iratyimonai,iratyimonai_ANNOYED,correct
5a62207c13898300014b1fbb,English,none,Guessing the meaning of Japanese words,1,22,EXHAUSTED,http://honestcookingblog.com/soundfiles//retyuu.mp3,B,2959,kowai,kowai_EXHAUSTED,correct
5a62207c13898300014b1fbb,English,none,Guessing the meaning of Japanese words,1,23,TIDY,http://honestcookingblog.com/soundfiles//hurepya.mp3,A,1673,migotsu,migotsu_CLEAN,correct
5a62207c13898300014b1fbb,English,none,Guessing the meaning of Japanese words,1,24,SAD,http://honestcookingblog.com/soundfiles//hiQguyu.mp3,A,2507,gurasyi,gurasyi_SAD,incorrect
5a62207c13898300014b1fbb,English,none,Guessing the meaning of Japanese words,1,25,HAPPY,http://honestcookingblog.com/soundfiles//aQpowu.mp3,B,1764,uresyii,uresyii_GLAD,incorrect
5a62207c13898300014b1fbb,English,none,Guessing the meaning of Japanese words,1,26,ROUGH,http://honestcookingblog.com/soundfiles//ipyua.mp3,B,1882,arai,arai_ROUGH,correct
5a62207c13898300014b1fbb,English,none,Guessing the meaning of Japanese words,1,27,SLOW,http://honestcookingblog.com/soundfiles//weQwiwua.mp3,A,4341,doNkusai,doNkusai_SLOW,correct
5a62207c13898300014b1fbb,English,none,Guessing the meaning of Japanese words,1,28,LOUD,http://honestcookingblog.com/soundfiles//pyoniQpiwuri.mp3,B,1802,sekarasyika,sekarasyika_LOUD,correct
5a62207c13898300014b1fbb,English,none,Guessing the meaning of Japanese words,1,29,KNOCK (AT THE DOOR),http://honestcookingblog.com/soundfiles//wiyuwi.mp3,A,1968,hadagu,hadagu_RAP (AT THE DOOR),correct
5a62207c13898300014b1fbb,English,none,Guessing the meaning of Japanese words,1,30,SMOKY,http://honestcookingblog.com/soundfiles//royiwiu.mp3,B,1718,kebutai,kebutai_SMOKY,correct
5a62207c13898300014b1fbb,English,none,Guessing the meaning of Japanese words,1,31,SAD,http://honestcookingblog.com/soundfiles//wopyiyia.mp3,A,3652,setsunai,setsunai_SAD,correct
5a62207c13898300014b1fbb,English,none,Guessing the meaning of Japanese words,1,32,HARD,http://honestcookingblog.com/soundfiles//nuhua.mp3,B,2109,katai,katai_HARD,correct
5a62207c13898300014b1fbb,English,none,Guessing the meaning of Japanese words,1,33,HOPPING,http://honestcookingblog.com/soundfiles//reQ.mp3,A,2099,pyoNpyoN,pyoNpyoN_BOUNCING,correct
5a62207c13898300014b1fbb,English,none,Guessing the meaning of Japanese words,1,34,WHISPERING,http://honestcookingblog.com/soundfiles//dzame.mp3,B,1310,hisohiso,hisohiso_WHISPERING,correct
610ce644c22d6b8fbd231465,English,NA,Listen to two Japanese spoken words and match the correct one to the word displayed,1,1,FLUFFY,http://honestcookingblog.com/soundfiles//rizyu.mp3,A,1194,fuwafuwa,fuwafuwa_FLUFFY,correct
610ce644c22d6b8fbd231465,English,NA,Listen to two Japanese spoken words and match the correct one to the word displayed,1,2,WOBBLING,http://honestcookingblog.com/soundfiles//tyekye.mp3,B,1515,yoroyoro,yoroyoro_WOBBLING,correct
610ce644c22d6b8fbd231465,English,NA,Listen to two Japanese spoken words and match the correct one to the word displayed,1,3,CUNNING,http://honestcookingblog.com/soundfiles//pyiQpiu.mp3,A,1094,zurui,zurui_CUNNING,correct
610ce644c22d6b8fbd231465,English,NA,Listen to two Japanese spoken words and match the correct one to the word displayed,1,4,(SPINE) TINGLING,http://honestcookingblog.com/soundfiles//pyera.mp3,B,774,zokuzoku,zokuzoku_(SPINE) TINGLING,correct
610ce644c22d6b8fbd231465,English,NA,Listen to two Japanese spoken words and match the correct one to the word displayed,1,5,ROUGH,http://honestcookingblog.com/soundfiles//wikyu.mp3,B,647,zyarizyari,zyarizyari_ROUGH,incorrect
610ce644c22d6b8fbd231465,English,NA,Listen to two Japanese spoken words and match the correct one to the word displayed,1,6,SLUGGISH,http://honestcookingblog.com/soundfiles//yiQha.mp3,B,1414,naNgii,naNgii_SLUGGISH,correct
610ce644c22d6b8fbd231465,English,NA,Listen to two Japanese spoken words and match the correct one to the word displayed,1,7,SPLASHING,http://honestcookingblog.com/soundfiles//wuya.mp3,A,943,taputapu,taputapu_SLOSHING,correct
610ce644c22d6b8fbd231465,English,NA,Listen to two Japanese spoken words and match the correct one to the word displayed,1,8,NOISY,http://honestcookingblog.com/soundfiles//era.mp3,A,3334,ookii,ookii_LOUD,incorrect
610ce644c22d6b8fbd231465,English,NA,Listen to two Japanese spoken words and match the correct one to the word displayed,1,9,HARD,http://honestcookingblog.com/soundfiles//wuya.mp3,A,667,katyikatyi,katyikatyi_HARD,correct
610ce644c22d6b8fbd231465,English,NA,Listen to two Japanese spoken words and match the correct one to the word displayed,1,10,LONG,http://honestcookingblog.com/soundfiles//yiruu.mp3,B,812,nagai,nagai_LONG,correct
610ce644c22d6b8fbd231465,English,NA,Listen to two Japanese spoken words and match the correct one to the word displayed,1,11,QUIET,http://honestcookingblog.com/soundfiles//yaQ.mp3,A,798,syiiN,syiiN_QUIET,correct
610ce644c22d6b8fbd231465,English,NA,Listen to two Japanese spoken words and match the correct one to the word displayed,1,12,SOUR,http://honestcookingblog.com/soundfiles//pyuyiu.mp3,B,3934,syibui,syibui_SOUR,correct
610ce644c22d6b8fbd231465,English,NA,Listen to two Japanese spoken words and match the correct one to the word displayed,1,13,BITTER,http://honestcookingblog.com/soundfiles//pyuhia.mp3,A,1031,nigai,nigai_BITTER,correct
610ce644c22d6b8fbd231465,English,NA,Listen to two Japanese spoken words and match the correct one to the word displayed,1,14,A LITTLE,http://honestcookingblog.com/soundfiles//yeme.mp3,A,695,tyoQto,tyoQto_A LITTLE,incorrect
610ce644c22d6b8fbd231465,English,NA,Listen to two Japanese spoken words and match the correct one to the word displayed,1,15,DRIBBLING,http://honestcookingblog.com/soundfiles//hawa.mp3,A,982,guzyuguzyu,guzyuguzyu_OOZING,correct
610ce644c22d6b8fbd231465,English,NA,Listen to two Japanese spoken words and match the correct one to the word displayed,1,16,TIGHT,http://honestcookingblog.com/soundfiles//raye.mp3,A,3772,tyiisoo,tyiisoo_TIGHT,incorrect
610ce644c22d6b8fbd231465,English,NA,Listen to two Japanese spoken words and match the correct one to the word displayed,1,17,WEARY,http://honestcookingblog.com/soundfiles//waQhe.mp3,B,1118,syiNdo,syiNdo_EXHAUSTED,incorrect
610ce644c22d6b8fbd231465,English,NA,Listen to two Japanese spoken words and match the correct one to the word displayed,1,18,SLENDER,http://honestcookingblog.com/soundfiles//wehuru.mp3,B,2270,komaka,komaka_THIN,correct
610ce644c22d6b8fbd231465,English,NA,Listen to two Japanese spoken words and match the correct one to the word displayed,1,19,SHAKING,http://honestcookingblog.com/soundfiles//wimu.mp3,A,891,gatagata,gatagata_SHAKING,correct
610ce644c22d6b8fbd231465,English,NA,Listen to two Japanese spoken words and match the correct one to the word displayed,1,20,COARSE,http://honestcookingblog.com/soundfiles//ewa.mp3,B,3163,ookii,ookii_ROUGH,correct
610ce644c22d6b8fbd231465,English,NA,Listen to two Japanese spoken words and match the correct one to the word displayed,1,21,IMPATIENT,http://honestcookingblog.com/soundfiles//akyiruweyua.mp3,A,1962,iratyimonai,iratyimonai_ANNOYED,correct
610ce644c22d6b8fbd231465,English,NA,Listen to two Japanese spoken words and match the correct one to the word displayed,1,22,EXHAUSTED,http://honestcookingblog.com/soundfiles//neQdia.mp3,A,691,kowai,kowai_EXHAUSTED,incorrect
610ce644c22d6b8fbd231465,English,NA,Listen to two Japanese spoken words and match the correct one to the word displayed,1,23,CLEAN,http://honestcookingblog.com/soundfiles//waweyi.mp3,B,4478,migotsu,migotsu_CLEAN,incorrect
610ce644c22d6b8fbd231465,English,NA,Listen to two Japanese spoken words and match the correct one to the word displayed,1,24,SAD,http://honestcookingblog.com/soundfiles//hiQguyu.mp3,A,7730,gurasyi,gurasyi_SAD,incorrect
610ce644c22d6b8fbd231465,English,NA,Listen to two Japanese spoken words and match the correct one to the word displayed,1,25,HAPPY,http://honestcookingblog.com/soundfiles//ipyoya.mp3,A,870,uresyii,uresyii_GLAD,correct
610ce644c22d6b8fbd231465,English,NA,Listen to two Japanese spoken words and match the correct one to the word displayed,1,26,COARSE,http://honestcookingblog.com/soundfiles//ipyua.mp3,B,5006,arai,arai_ROUGH,correct
610ce644c22d6b8fbd231465,English,NA,Listen to two Japanese spoken words and match the correct one to the word displayed,1,27,SLOW,http://honestcookingblog.com/soundfiles//yeQnapyiu.mp3,A,3303,doNkusai,doNkusai_SLOW,correct
610ce644c22d6b8fbd231465,English,NA,Listen to two Japanese spoken words and match the correct one to the word displayed,1,28,NOISY,http://honestcookingblog.com/soundfiles//yorukyupyanu.mp3,A,9980,sekarasyika,sekarasyika_LOUD,incorrect
610ce644c22d6b8fbd231465,English,NA,Listen to two Japanese spoken words and match the correct one to the word displayed,1,29,RAP (AT THE DOOR),http://honestcookingblog.com/soundfiles//pyiwuhi.mp3,A,1094,hadagu,hadagu_RAP (AT THE DOOR),correct
610ce644c22d6b8fbd231465,English,NA,Listen to two Japanese spoken words and match the correct one to the word displayed,1,30,SMOKY,http://honestcookingblog.com/soundfiles//woramua.mp3,A,1930,kebutai,kebutai_SMOKY,incorrect
610ce644c22d6b8fbd231465,English,NA,Listen to two Japanese spoken words and match the correct one to the word displayed,1,31,SAD,http://honestcookingblog.com/soundfiles//wopyiyia.mp3,A,1852,setsunai,setsunai_SAD,correct
610ce644c22d6b8fbd231465,English,NA,Listen to two Japanese spoken words and match the correct one to the word displayed,1,32,HARD,http://honestcookingblog.com/soundfiles//zuwua.mp3,B,1500,katai,katai_HARD,correct
610ce644c22d6b8fbd231465,English,NA,Listen to two Japanese spoken words and match the correct one to the word displayed,1,33,HOPPING,http://honestcookingblog.com/soundfiles//reQ.mp3,A,723,pyoNpyoN,pyoNpyoN_BOUNCING,correct
610ce644c22d6b8fbd231465,English,NA,Listen to two Japanese spoken words and match the correct one to the word displayed,1,34,WHISPERING,http://honestcookingblog.com/soundfiles//zyage.mp3,B,1859,hisohiso,hisohiso_WHISPERING,correct
60e7757520dc0764e2627016,English,French,Hearing two words in Japanese and selecting which one means a given translation in English,1,1,FLUFFY,http://honestcookingblog.com/soundfiles//rizyu.mp3,A,2279,fuwafuwa,fuwafuwa_FLUFFY,correct
60e7757520dc0764e2627016,English,French,Hearing two words in Japanese and selecting which one means a given translation in English,1,2,WOBBLING,http://honestcookingblog.com/soundfiles//tseke.mp3,B,1556,yoroyoro,yoroyoro_WOBBLING,correct
60e7757520dc0764e2627016,English,French,Hearing two words in Japanese and selecting which one means a given translation in English,1,3,SNEAKY,http://honestcookingblog.com/soundfiles//yaQkaa.mp3,B,1789,zurui,zurui_CUNNING,incorrect
60e7757520dc0764e2627016,English,French,Hearing two words in Japanese and selecting which one means a given translation in English,1,4,(SPINE) TINGLING,http://honestcookingblog.com/soundfiles//pyera.mp3,B,746,zokuzoku,zokuzoku_(SPINE) TINGLING,correct
60e7757520dc0764e2627016,English,French,Hearing two words in Japanese and selecting which one means a given translation in English,1,5,COARSE,http://honestcookingblog.com/soundfiles//yiQgu.mp3,B,1531,zyarizyari,zyarizyari_ROUGH,incorrect
60e7757520dc0764e2627016,English,French,Hearing two words in Japanese and selecting which one means a given translation in English,1,6,LETHARGIC,http://honestcookingblog.com/soundfiles//wuQru.mp3,B,983,naNgii,naNgii_SLUGGISH,correct
60e7757520dc0764e2627016,English,French,Hearing two words in Japanese and selecting which one means a given translation in English,1,7,SLOSHING,http://honestcookingblog.com/soundfiles//wuya.mp3,A,4143,taputapu,taputapu_SLOSHING,correct
60e7757520dc0764e2627016,English,French,Hearing two words in Japanese and selecting which one means a given translation in English,1,8,NOISY,http://honestcookingblog.com/soundfiles//era.mp3,A,769,ookii,ookii_LOUD,incorrect
60e7757520dc0764e2627016,English,French,Hearing two words in Japanese and selecting which one means a given translation in English,1,9,HARD,http://honestcookingblog.com/soundfiles//riru.mp3,A,1002,katyikatyi,katyikatyi_HARD,correct
60e7757520dc0764e2627016,English,French,Hearing two words in Japanese and selecting which one means a given translation in English,1,10,LONG,http://honestcookingblog.com/soundfiles//wuhia.mp3,B,825,nagai,nagai_LONG,correct
60e7757520dc0764e2627016,English,French,Hearing two words in Japanese and selecting which one means a given translation in English,1,11,QUIET,http://honestcookingblog.com/soundfiles//wuQ.mp3,A,1162,syiiN,syiiN_QUIET,correct
60e7757520dc0764e2627016,English,French,Hearing two words in Japanese and selecting which one means a given translation in English,1,12,SOUR,http://honestcookingblog.com/soundfiles//yaraa.mp3,A,875,syibui,syibui_SOUR,incorrect
60e7757520dc0764e2627016,English,French,Hearing two words in Japanese and selecting which one means a given translation in English,1,13,ACRID,http://honestcookingblog.com/soundfiles//pyuhia.mp3,B,1375,nigai,nigai_BITTER,incorrect
60e7757520dc0764e2627016,English,French,Hearing two words in Japanese and selecting which one means a given translation in English,1,14,A LITTLE,http://honestcookingblog.com/soundfiles//wewe.mp3,B,971,tyoQto,tyoQto_A LITTLE,correct
60e7757520dc0764e2627016,English,French,Hearing two words in Japanese and selecting which one means a given translation in English,1,15,DRIBBLING,http://honestcookingblog.com/soundfiles//riyi.mp3,A,843,guzyuguzyu,guzyuguzyu_OOZING,correct
60e7757520dc0764e2627016,English,French,Hearing two words in Japanese and selecting which one means a given translation in English,1,16,PINCHING,http://honestcookingblog.com/soundfiles//yuwe.mp3,B,839,tyiisoo,tyiisoo_TIGHT,correct
60e7757520dc0764e2627016,English,French,Hearing two words in Japanese and selecting which one means a given translation in English,1,17,WEARY,http://honestcookingblog.com/soundfiles//pyaQye.mp3,A,721,syiNdo,syiNdo_EXHAUSTED,correct
60e7757520dc0764e2627016,English,French,Hearing two words in Japanese and selecting which one means a given translation in English,1,18,THIN,http://honestcookingblog.com/soundfiles//reyunu.mp3,B,1881,komaka,komaka_THIN,correct
60e7757520dc0764e2627016,English,French,Hearing two words in Japanese and selecting which one means a given translation in English,1,19,SHAKING,http://honestcookingblog.com/soundfiles//ruwi.mp3,A,780,gatagata,gatagata_SHAKING,correct
60e7757520dc0764e2627016,English,French,Hearing two words in Japanese and selecting which one means a given translation in English,1,20,COARSE,http://honestcookingblog.com/soundfiles//ewa.mp3,B,708,ookii,ookii_ROUGH,correct
60e7757520dc0764e2627016,English,French,Hearing two words in Japanese and selecting which one means a given translation in English,1,21,IMPATIENT,http://honestcookingblog.com/soundfiles//aQkiyuhewua.mp3,A,865,iratyimonai,iratyimonai_ANNOYED,correct
60e7757520dc0764e2627016,English,French,Hearing two words in Japanese and selecting which one means a given translation in English,1,22,EXHAUSTED,http://honestcookingblog.com/soundfiles//retyuu.mp3,A,1150,kowai,kowai_EXHAUSTED,incorrect
60e7757520dc0764e2627016,English,French,Hearing two words in Japanese and selecting which one means a given translation in English,1,23,TIDY,http://honestcookingblog.com/soundfiles//waweyi.mp3,A,1059,migotsu,migotsu_CLEAN,correct
60e7757520dc0764e2627016,English,French,Hearing two words in Japanese and selecting which one means a given translation in English,1,24,GLUM,http://honestcookingblog.com/soundfiles//hiQguyu.mp3,A,1832,gurasyi,gurasyi_SAD,incorrect
60e7757520dc0764e2627016,English,French,Hearing two words in Japanese and selecting which one means a given translation in English,1,25,HAPPY,http://honestcookingblog.com/soundfiles//akyopyu.mp3,A,813,uresyii,uresyii_GLAD,correct
60e7757520dc0764e2627016,English,French,Hearing two words in Japanese and selecting which one means a given translation in English,1,26,ROUGH,http://honestcookingblog.com/soundfiles//ipyua.mp3,B,1186,arai,arai_ROUGH,correct
60e7757520dc0764e2627016,English,French,Hearing two words in Japanese and selecting which one means a given translation in English,1,27,SLOW,http://honestcookingblog.com/soundfiles//weQwiwua.mp3,A,735,doNkusai,doNkusai_SLOW,correct
60e7757520dc0764e2627016,English,French,Hearing two words in Japanese and selecting which one means a given translation in English,1,28,LOUD,http://honestcookingblog.com/soundfiles//yorukyupyanu.mp3,B,2543,sekarasyika,sekarasyika_LOUD,correct
60e7757520dc0764e2627016,English,French,Hearing two words in Japanese and selecting which one means a given translation in English,1,29,RAP (AT THE DOOR),http://honestcookingblog.com/soundfiles//ruhira.mp3,B,1321,hadagu,hadagu_RAP (AT THE DOOR),incorrect
60e7757520dc0764e2627016,English,French,Hearing two words in Japanese and selecting which one means a given translation in English,1,30,SMOKY,http://honestcookingblog.com/soundfiles//royiwiu.mp3,A,1619,kebutai,kebutai_SMOKY,incorrect
60e7757520dc0764e2627016,English,French,Hearing two words in Japanese and selecting which one means a given translation in English,1,31,GLUM,http://honestcookingblog.com/soundfiles//yowapyuu.mp3,A,1382,setsunai,setsunai_SAD,correct
60e7757520dc0764e2627016,English,French,Hearing two words in Japanese and selecting which one means a given translation in English,1,32,HARD,http://honestcookingblog.com/soundfiles//nuhua.mp3,B,793,katai,katai_HARD,correct
60e7757520dc0764e2627016,English,French,Hearing two words in Japanese and selecting which one means a given translation in English,1,33,BOUNCING,http://honestcookingblog.com/soundfiles//reQ.mp3,A,1020,pyoNpyoN,pyoNpyoN_BOUNCING,correct
60e7757520dc0764e2627016,English,French,Hearing two words in Japanese and selecting which one means a given translation in English,1,34,WHISPERING,http://honestcookingblog.com/soundfiles//zyage.mp3,B,798,hisohiso,hisohiso_WHISPERING,correct
60f2d4fb9118d0572ba76e09,English,Spanish,Listen to Japanese words and match the sound to the meaning.,1,1,FLUFFY,http://honestcookingblog.com/soundfiles//gityu.mp3,A,3908,fuwafuwa,fuwafuwa_FLUFFY,correct
60f2d4fb9118d0572ba76e09,English,Spanish,Listen to Japanese words and match the sound to the meaning.,1,2,WOBBLING,http://honestcookingblog.com/soundfiles//tyekye.mp3,B,1439,yoroyoro,yoroyoro_WOBBLING,correct
60f2d4fb9118d0572ba76e09,English,Spanish,Listen to Japanese words and match the sound to the meaning.,1,3,SLY,http://honestcookingblog.com/soundfiles//wapyaa.mp3,A,1800,zurui,zurui_CUNNING,correct
60f2d4fb9118d0572ba76e09,English,Spanish,Listen to Japanese words and match the sound to the meaning.,1,4,SHIVERS (DOWN YOUR SPINE),http://honestcookingblog.com/soundfiles//pyera.mp3,A,2219,zokuzoku,zokuzoku_(SPINE) TINGLING,incorrect
60f2d4fb9118d0572ba76e09,English,Spanish,Listen to Japanese words and match the sound to the meaning.,1,5,ROUGH,http://honestcookingblog.com/soundfiles//ruQka.mp3,B,1177,zyarizyari,zyarizyari_ROUGH,incorrect
60f2d4fb9118d0572ba76e09,English,Spanish,Listen to Japanese words and match the sound to the meaning.,1,6,SLUGGISH,http://honestcookingblog.com/soundfiles//yiQha.mp3,B,1012,naNgii,naNgii_SLUGGISH,correct
60f2d4fb9118d0572ba76e09,English,Spanish,Listen to Japanese words and match the sound to the meaning.,1,7,SLOSHING,http://honestcookingblog.com/soundfiles//mura.mp3,A,1013,taputapu,taputapu_SLOSHING,correct
60f2d4fb9118d0572ba76e09,English,Spanish,Listen to Japanese words and match the sound to the meaning.,1,8,NOISY,http://honestcookingblog.com/soundfiles//era.mp3,A,1192,ookii,ookii_LOUD,incorrect
60f2d4fb9118d0572ba76e09,English,Spanish,Listen to Japanese words and match the sound to the meaning.,1,9,HARD,http://honestcookingblog.com/soundfiles//wuya.mp3,B,1829,katyikatyi,katyikatyi_HARD,incorrect
60f2d4fb9118d0572ba76e09,English,Spanish,Listen to Japanese words and match the sound to the meaning.,1,10,LONG,http://honestcookingblog.com/soundfiles//pyuwia.mp3,B,978,nagai,nagai_LONG,correct
60f2d4fb9118d0572ba76e09,English,Spanish,Listen to Japanese words and match the sound to the meaning.,1,11,QUIET,http://honestcookingblog.com/soundfiles//pyaQ.mp3,B,1992,syiiN,syiiN_QUIET,incorrect
60f2d4fb9118d0572ba76e09,English,Spanish,Listen to Japanese words and match the sound to the meaning.,1,12,SOUR,http://honestcookingblog.com/soundfiles//pyuyiu.mp3,A,1144,syibui,syibui_SOUR,incorrect
60f2d4fb9118d0572ba76e09,English,Spanish,Listen to Japanese words and match the sound to the meaning.,1,13,BITTER,http://honestcookingblog.com/soundfiles//pyuhia.mp3,B,4030,nigai,nigai_BITTER,incorrect
60f2d4fb9118d0572ba76e09,English,Spanish,Listen to Japanese words and match the sound to the meaning.,1,14,SLIGHTLY,http://honestcookingblog.com/soundfiles//reye.mp3,A,1654,tyoQto,tyoQto_A LITTLE,incorrect
60f2d4fb9118d0572ba76e09,English,Spanish,Listen to Japanese words and match the sound to the meaning.,1,15,DRIBBLING,http://honestcookingblog.com/soundfiles//hawa.mp3,A,1428,guzyuguzyu,guzyuguzyu_OOZING,correct
60f2d4fb9118d0572ba76e09,English,Spanish,Listen to Japanese words and match the sound to the meaning.,1,16,TIGHT,http://honestcookingblog.com/soundfiles//yuwe.mp3,A,1588,tyiisoo,tyiisoo_TIGHT,incorrect
60f2d4fb9118d0572ba76e09,English,Spanish,Listen to Japanese words and match the sound to the meaning.,1,17,WEARY,http://honestcookingblog.com/soundfiles//waQhe.mp3,B,1037,syiNdo,syiNdo_EXHAUSTED,incorrect
60f2d4fb9118d0572ba76e09,English,Spanish,Listen to Japanese words and match the sound to the meaning.,1,18,SLENDER,http://honestcookingblog.com/soundfiles//reyunu.mp3,A,2020,komaka,komaka_THIN,incorrect
60f2d4fb9118d0572ba76e09,English,Spanish,Listen to Japanese words and match the sound to the meaning.,1,19,SHAKING,http://honestcookingblog.com/soundfiles//ruwi.mp3,A,1169,gatagata,gatagata_SHAKING,correct
60f2d4fb9118d0572ba76e09,English,Spanish,Listen to Japanese words and match the sound to the meaning.,1,20,COARSE,http://honestcookingblog.com/soundfiles//enu.mp3,A,939,ookii,ookii_ROUGH,incorrect
60f2d4fb9118d0572ba76e09,English,Spanish,Listen to Japanese words and match the sound to the meaning.,1,21,IMPATIENT,http://honestcookingblog.com/soundfiles//upyuwarepyiu.mp3,A,3972,iratyimonai,iratyimonai_ANNOYED,correct
60f2d4fb9118d0572ba76e09,English,Spanish,Listen to Japanese words and match the sound to the meaning.,1,22,EXHAUSTED,http://honestcookingblog.com/soundfiles//weQtuu.mp3,A,2672,kowai,kowai_EXHAUSTED,incorrect
60f2d4fb9118d0572ba76e09,English,Spanish,Listen to Japanese words and match the sound to the meaning.,1,23,TIDY,http://honestcookingblog.com/soundfiles//hurepya.mp3,A,1176,migotsu,migotsu_CLEAN,correct
60f2d4fb9118d0572ba76e09,English,Spanish,Listen to Japanese words and match the sound to the meaning.,1,24,SAD,http://honestcookingblog.com/soundfiles//raQkiwa.mp3,B,4503,gurasyi,gurasyi_SAD,correct
60f2d4fb9118d0572ba76e09,English,Spanish,Listen to Japanese words and match the sound to the meaning.,1,25,HAPPY,http://honestcookingblog.com/soundfiles//akyopyu.mp3,B,2994,uresyii,uresyii_GLAD,incorrect
60f2d4fb9118d0572ba76e09,English,Spanish,Listen to Japanese words and match the sound to the meaning.,1,26,ROUGH,http://honestcookingblog.com/soundfiles//iQgua.mp3,B,3845,arai,arai_ROUGH,correct
60f2d4fb9118d0572ba76e09,English,Spanish,Listen to Japanese words and match the sound to the meaning.,1,27,SLOW,http://honestcookingblog.com/soundfiles//heQrayiu.mp3,B,818,doNkusai,doNkusai_SLOW,incorrect
60f2d4fb9118d0572ba76e09,English,Spanish,Listen to Japanese words and match the sound to the meaning.,1,28,LOUD,http://honestcookingblog.com/soundfiles//pyoniQpiwuri.mp3,B,1146,sekarasyika,sekarasyika_LOUD,correct
60f2d4fb9118d0572ba76e09,English,Spanish,Listen to Japanese words and match the sound to the meaning.,1,29,RAP (AT THE DOOR),http://honestcookingblog.com/soundfiles//wiyuwi.mp3,A,1486,hadagu,hadagu_RAP (AT THE DOOR),correct
60f2d4fb9118d0572ba76e09,English,Spanish,Listen to Japanese words and match the sound to the meaning.,1,30,SMOKY,http://honestcookingblog.com/soundfiles//nowiyiu.mp3,A,1114,kebutai,kebutai_SMOKY,incorrect
60f2d4fb9118d0572ba76e09,English,Spanish,Listen to Japanese words and match the sound to the meaning.,1,31,SAD,http://honestcookingblog.com/soundfiles//wopyiyia.mp3,B,867,setsunai,setsunai_SAD,incorrect
60f2d4fb9118d0572ba76e09,English,Spanish,Listen to Japanese words and match the sound to the meaning.,1,32,HARD,http://honestcookingblog.com/soundfiles//nuhua.mp3,A,1855,katai,katai_HARD,incorrect
60f2d4fb9118d0572ba76e09,English,Spanish,Listen to Japanese words and match the sound to the meaning.,1,33,BOUNCING,http://honestcookingblog.com/soundfiles//zeQ.mp3,A,1211,pyoNpyoN,pyoNpyoN_BOUNCING,correct
60f2d4fb9118d0572ba76e09,English,Spanish,Listen to Japanese words and match the sound to the meaning.,1,34,WHISPERING,http://honestcookingblog.com/soundfiles//dzame.mp3,B,4030,hisohiso,hisohiso_WHISPERING,correct
6159d28dd444683fdaf040ad,English,Some french,Given a word in english and had to decide which japenese word you think translates,1,1,FLUFFY,http://honestcookingblog.com/soundfiles//nitsu.mp3,B,2261,fuwafuwa,fuwafuwa_FLUFFY,incorrect
6159d28dd444683fdaf040ad,English,Some french,Given a word in english and had to decide which japenese word you think translates,1,2,WOBBLING,http://honestcookingblog.com/soundfiles//tyekye.mp3,A,2592,yoroyoro,yoroyoro_WOBBLING,incorrect
6159d28dd444683fdaf040ad,English,Some french,Given a word in english and had to decide which japenese word you think translates,1,3,CUNNING,http://honestcookingblog.com/soundfiles//wapyaa.mp3,A,2084,zurui,zurui_CUNNING,correct
6159d28dd444683fdaf040ad,English,Some french,Given a word in english and had to decide which japenese word you think translates,1,4,(SPINE) TINGLING,http://honestcookingblog.com/soundfiles//weni.mp3,B,808,zokuzoku,zokuzoku_(SPINE) TINGLING,correct
6159d28dd444683fdaf040ad,English,Some french,Given a word in english and had to decide which japenese word you think translates,1,5,GRITTY,http://honestcookingblog.com/soundfiles//wikyu.mp3,A,2013,zyarizyari,zyarizyari_ROUGH,correct
6159d28dd444683fdaf040ad,English,Some french,Given a word in english and had to decide which japenese word you think translates,1,6,LETHARGIC,http://honestcookingblog.com/soundfiles//wuQru.mp3,B,2326,naNgii,naNgii_SLUGGISH,correct
6159d28dd444683fdaf040ad,English,Some french,Given a word in english and had to decide which japenese word you think translates,1,7,SLOSHING,http://honestcookingblog.com/soundfiles//yiwi.mp3,B,1254,taputapu,taputapu_SLOSHING,incorrect
6159d28dd444683fdaf040ad,English,Some french,Given a word in english and had to decide which japenese word you think translates,1,8,LOUD,http://honestcookingblog.com/soundfiles//ewu.mp3,A,1803,ookii,ookii_LOUD,incorrect
6159d28dd444683fdaf040ad,English,Some french,Given a word in english and had to decide which japenese word you think translates,1,9,HARD,http://honestcookingblog.com/soundfiles//wuya.mp3,A,1256,katyikatyi,katyikatyi_HARD,correct
6159d28dd444683fdaf040ad,English,Some french,Given a word in english and had to decide which japenese word you think translates,1,10,LONG,http://honestcookingblog.com/soundfiles//wuhia.mp3,B,853,nagai,nagai_LONG,correct
6159d28dd444683fdaf040ad,English,Some french,Given a word in english and had to decide which japenese word you think translates,1,11,QUIET,http://honestcookingblog.com/soundfiles//pyaQ.mp3,B,22479,syiiN,syiiN_QUIET,incorrect
6159d28dd444683fdaf040ad,English,Some french,Given a word in english and had to decide which japenese word you think translates,1,12,ACIDIC,http://honestcookingblog.com/soundfiles//yaraa.mp3,B,1750,syibui,syibui_SOUR,correct
6159d28dd444683fdaf040ad,English,Some french,Given a word in english and had to decide which japenese word you think translates,1,13,ACRID,http://honestcookingblog.com/soundfiles//waruu.mp3,A,1056,nigai,nigai_BITTER,correct
6159d28dd444683fdaf040ad,English,Some french,Given a word in english and had to decide which japenese word you think translates,1,14,A LITTLE,http://honestcookingblog.com/soundfiles//reye.mp3,A,1180,tyoQto,tyoQto_A LITTLE,incorrect
6159d28dd444683fdaf040ad,English,Some french,Given a word in english and had to decide which japenese word you think translates,1,15,DRIBBLING,http://honestcookingblog.com/soundfiles//wara.mp3,A,2611,guzyuguzyu,guzyuguzyu_OOZING,correct
