ProlificID,Native,Otherlangs,Taskdesc,experiment,trial,trans,rating,rt,form,identifier
5cb107406b91550001c89741,English,"French, Spanish",Rating how much the sound of words resembled their meaning,1,1,FLUFFY,5,6991,fuwafuwa,fuwafuwa_FLUFFY
5cb107406b91550001c89741,English,"French, Spanish",Rating how much the sound of words resembled their meaning,1,2,WOBBLING,6,1293,yoroyoro,yoroyoro_WOBBLING
5cb107406b91550001c89741,English,"French, Spanish",Rating how much the sound of words resembled their meaning,1,3,SLIGHTLY,0,1022,tyobiQto,tyobiQto_A LITTLE
5cb107406b91550001c89741,English,"French, Spanish",Rating how much the sound of words resembled their meaning,1,4,WEARY,1,1307,hoQkori,hoQkori_EXHAUSTED
5cb107406b91550001c89741,English,"French, Spanish",Rating how much the sound of words resembled their meaning,1,5,EXHAUSTED,1,1047,syiNdo,syiNdo_EXHAUSTED
5cb107406b91550001c89741,English,"French, Spanish",Rating how much the sound of words resembled their meaning,1,6,ANNOYED,3,1585,yaNdagunaruQ,yaNdagunaruQ_ANNOYED
5cb107406b91550001c89741,English,"French, Spanish",Rating how much the sound of words resembled their meaning,1,7,SPEEDY,3,1264,hayai,hayai_FAST
5cb107406b91550001c89741,English,"French, Spanish",Rating how much the sound of words resembled their meaning,1,8,TINGLING,4,1755,hirihiri,hirihiri_BURNING
5cb107406b91550001c89741,English,"French, Spanish",Rating how much the sound of words resembled their meaning,1,9,WET,0,841,syimeQpoi,syimeQpoi_WET
5cb107406b91550001c89741,English,"French, Spanish",Rating how much the sound of words resembled their meaning,1,10,DRUMMING (E.G. HEART),5,989,dokidoki,dokidoki_POUNDING (e.g. heart)
5cb107406b91550001c89741,English,"French, Spanish",Rating how much the sound of words resembled their meaning,1,11,RUDE,3,1425,adzu,adzu_RUDE
5cb107406b91550001c89741,English,"French, Spanish",Rating how much the sound of words resembled their meaning,1,12,PRICKLING,3,1873,syikasyika,syikasyika_ITCHING
5cb107406b91550001c89741,English,"French, Spanish",Rating how much the sound of words resembled their meaning,1,13,FREEZE,1,952,syibareru,syibareru_FREEZE
5cb107406b91550001c89741,English,"French, Spanish",Rating how much the sound of words resembled their meaning,1,14,QUIET,2,3411,syiiN,syiiN_QUIET
5cb107406b91550001c89741,English,"French, Spanish",Rating how much the sound of words resembled their meaning,1,15,PULSATING,4,1223,zuNzuN,zuNzuN_THROBBING
5cb107406b91550001c89741,English,"French, Spanish",Rating how much the sound of words resembled their meaning,1,16,REFRESHED,1,1496,haQkiri,haQkiri_CLEAR
5cb107406b91550001c89741,English,"French, Spanish",Rating how much the sound of words resembled their meaning,1,17,IMPATIENT,2,1854,zyireQtai,zyireQtai_ANNOYED
5cb107406b91550001c89741,English,"French, Spanish",Rating how much the sound of words resembled their meaning,1,18,LETHARGIC,3,1446,naNgii,naNgii_SLUGGISH
5cb107406b91550001c89741,English,"French, Spanish",Rating how much the sound of words resembled their meaning,1,19,GOOEY,3,1062,nurunuru,nurunuru_STICKY
5cb107406b91550001c89741,English,"French, Spanish",Rating how much the sound of words resembled their meaning,1,20,BRAZEN,0,1575,tyiputoi,tyiputoi_RUDE
5cb107406b91550001c89741,English,"French, Spanish",Rating how much the sound of words resembled their meaning,1,21,TICKLING,5,2079,kosobai,kosobai_TICKLING
5cb107406b91550001c89741,English,"French, Spanish",Rating how much the sound of words resembled their meaning,1,22,TIRED,0,1081,kutabireta,kutabireta_EXHAUSTED
5cb107406b91550001c89741,English,"French, Spanish",Rating how much the sound of words resembled their meaning,1,23,TEAR,0,1327,yabuku,yabuku_TEAR
5cb107406b91550001c89741,English,"French, Spanish",Rating how much the sound of words resembled their meaning,1,24,LETHARGIC,2,1569,erai,erai_SLUGGISH
5cb107406b91550001c89741,English,"French, Spanish",Rating how much the sound of words resembled their meaning,1,25,TINY,2,1103,hosoi,hosoi_SMALL
5cb107406b91550001c89741,English,"French, Spanish",Rating how much the sound of words resembled their meaning,1,26,PRICKLING,4,1280,kaii,kaii_PRICKLING
5cb107406b91550001c89741,English,"French, Spanish",Rating how much the sound of words resembled their meaning,1,27,TICKLING,2,1456,kusuguQtee,kusuguQtee_TICKLING
5cb107406b91550001c89741,English,"French, Spanish",Rating how much the sound of words resembled their meaning,1,28,OILY/HEAVY (FOOD),1,5718,aburaQkoi,aburaQkoi_OILY/HEAVY (food)
5cb107406b91550001c89741,English,"French, Spanish",Rating how much the sound of words resembled their meaning,1,29,SCRATCH,3,1590,kakazyiru,kakazyiru_SCRATCH
5cb107406b91550001c89741,English,"French, Spanish",Rating how much the sound of words resembled their meaning,1,30,DAZZLING,2,1116,hidoroQko,hidoroQko_GLARING (light)
5cb107406b91550001c89741,English,"French, Spanish",Rating how much the sound of words resembled their meaning,1,31,BIND,1,1436,kubiru,kubiru_BIND
5cb107406b91550001c89741,English,"French, Spanish",Rating how much the sound of words resembled their meaning,1,32,HARD,3,1384,katai,katai_HARD
5cb107406b91550001c89741,English,"French, Spanish",Rating how much the sound of words resembled their meaning,1,33,BOUNCING,5,2495,pyoNpyoN,pyoNpyoN_BOUNCING
5cb107406b91550001c89741,English,"French, Spanish",Rating how much the sound of words resembled their meaning,1,34,WHISPERING,4,825,hisohiso,hisohiso_WHISPERING
6132572d113873b90f0c378d,english,none,hearing Japanese words and deciding if they sound like their meaning,1,1,FLUFFY,3,11221,fuwafuwa,fuwafuwa_FLUFFY
6132572d113873b90f0c378d,english,none,hearing Japanese words and deciding if they sound like their meaning,1,2,WOBBLING,5,2499,yoroyoro,yoroyoro_WOBBLING
6132572d113873b90f0c378d,english,none,hearing Japanese words and deciding if they sound like their meaning,1,3,SLIGHTLY,2,3588,tyobiQto,tyobiQto_A LITTLE
6132572d113873b90f0c378d,english,none,hearing Japanese words and deciding if they sound like their meaning,1,4,TIRED,2,1401,hoQkori,hoQkori_EXHAUSTED
6132572d113873b90f0c378d,english,none,hearing Japanese words and deciding if they sound like their meaning,1,5,EXHAUSTED,2,2973,syiNdo,syiNdo_EXHAUSTED
6132572d113873b90f0c378d,english,none,hearing Japanese words and deciding if they sound like their meaning,1,6,IMPATIENT,2,4439,yaNdagunaruQ,yaNdagunaruQ_ANNOYED
6132572d113873b90f0c378d,english,none,hearing Japanese words and deciding if they sound like their meaning,1,7,QUICK,3,5605,hayai,hayai_FAST
6132572d113873b90f0c378d,english,none,hearing Japanese words and deciding if they sound like their meaning,1,8,TINGLING,2,6090,hirihiri,hirihiri_BURNING
6132572d113873b90f0c378d,english,none,hearing Japanese words and deciding if they sound like their meaning,1,9,DAMP,2,1220,syimeQpoi,syimeQpoi_WET
6132572d113873b90f0c378d,english,none,hearing Japanese words and deciding if they sound like their meaning,1,10,DRUMMING (E.G. HEART),4,5960,dokidoki,dokidoki_POUNDING (e.g. heart)
6132572d113873b90f0c378d,english,none,hearing Japanese words and deciding if they sound like their meaning,1,11,BRAZEN,2,3367,adzu,adzu_RUDE
6132572d113873b90f0c378d,english,none,hearing Japanese words and deciding if they sound like their meaning,1,12,PRICKLING,4,4159,syikasyika,syikasyika_ITCHING
6132572d113873b90f0c378d,english,none,hearing Japanese words and deciding if they sound like their meaning,1,13,FREEZE,1,1819,syibareru,syibareru_FREEZE
6132572d113873b90f0c378d,english,none,hearing Japanese words and deciding if they sound like their meaning,1,14,QUIET,2,4588,syiiN,syiiN_QUIET
6132572d113873b90f0c378d,english,none,hearing Japanese words and deciding if they sound like their meaning,1,15,PULSATING,5,4672,zuNzuN,zuNzuN_THROBBING
6132572d113873b90f0c378d,english,none,hearing Japanese words and deciding if they sound like their meaning,1,16,CLEAR,2,6994,haQkiri,haQkiri_CLEAR
6132572d113873b90f0c378d,english,none,hearing Japanese words and deciding if they sound like their meaning,1,17,ANNOYED,2,1563,zyireQtai,zyireQtai_ANNOYED
6132572d113873b90f0c378d,english,none,hearing Japanese words and deciding if they sound like their meaning,1,18,LETHARGIC,4,4452,naNgii,naNgii_SLUGGISH
6132572d113873b90f0c378d,english,none,hearing Japanese words and deciding if they sound like their meaning,1,19,GOOEY,3,5909,nurunuru,nurunuru_STICKY
6132572d113873b90f0c378d,english,none,hearing Japanese words and deciding if they sound like their meaning,1,20,ARROGANT,2,3649,tyiputoi,tyiputoi_RUDE
6132572d113873b90f0c378d,english,none,hearing Japanese words and deciding if they sound like their meaning,1,21,TICKLING,1,1248,kosobai,kosobai_TICKLING
6132572d113873b90f0c378d,english,none,hearing Japanese words and deciding if they sound like their meaning,1,22,EXHAUSTED,2,1412,kutabireta,kutabireta_EXHAUSTED
6132572d113873b90f0c378d,english,none,hearing Japanese words and deciding if they sound like their meaning,1,23,RIP,2,2041,yabuku,yabuku_TEAR
6132572d113873b90f0c378d,english,none,hearing Japanese words and deciding if they sound like their meaning,1,24,LETHARGIC,2,2347,erai,erai_SLUGGISH
6132572d113873b90f0c378d,english,none,hearing Japanese words and deciding if they sound like their meaning,1,25,SMALL,2,4302,hosoi,hosoi_SMALL
6132572d113873b90f0c378d,english,none,hearing Japanese words and deciding if they sound like their meaning,1,26,PRICKLING,3,9101,kaii,kaii_PRICKLING
6132572d113873b90f0c378d,english,none,hearing Japanese words and deciding if they sound like their meaning,1,27,TICKLING,2,4086,kusuguQtee,kusuguQtee_TICKLING
6132572d113873b90f0c378d,english,none,hearing Japanese words and deciding if they sound like their meaning,1,28,OILY/HEAVY (FOOD),2,859,aburaQkoi,aburaQkoi_OILY/HEAVY (food)
6132572d113873b90f0c378d,english,none,hearing Japanese words and deciding if they sound like their meaning,1,29,SCRATCH,2,1038,kakazyiru,kakazyiru_SCRATCH
6132572d113873b90f0c378d,english,none,hearing Japanese words and deciding if they sound like their meaning,1,30,DAZZLING,2,1424,hidoroQko,hidoroQko_GLARING (light)
6132572d113873b90f0c378d,english,none,hearing Japanese words and deciding if they sound like their meaning,1,31,BIND,1,1888,kubiru,kubiru_BIND
6132572d113873b90f0c378d,english,none,hearing Japanese words and deciding if they sound like their meaning,1,32,HARD,2,1068,katai,katai_HARD
6132572d113873b90f0c378d,english,none,hearing Japanese words and deciding if they sound like their meaning,1,33,BOUNCING,5,2161,pyoNpyoN,pyoNpyoN_BOUNCING
6132572d113873b90f0c378d,english,none,hearing Japanese words and deciding if they sound like their meaning,1,34,WHISPERING,2,4950,hisohiso,hisohiso_WHISPERING
602962dea01dee8900886c7a,English,"British Sign Language, a little tourist French, a little tourist Spanish","Evaluating Japanese words, saying how we rated the sound of them in comparison to their meaning.",1,1,FLUFFY,4,4955,fuwafuwa,fuwafuwa_FLUFFY
602962dea01dee8900886c7a,English,"British Sign Language, a little tourist French, a little tourist Spanish","Evaluating Japanese words, saying how we rated the sound of them in comparison to their meaning.",1,2,WOBBLING,5,1876,yoroyoro,yoroyoro_WOBBLING
602962dea01dee8900886c7a,English,"British Sign Language, a little tourist French, a little tourist Spanish","Evaluating Japanese words, saying how we rated the sound of them in comparison to their meaning.",1,3,SLIGHTLY,0,1517,tyobiQto,tyobiQto_A LITTLE
602962dea01dee8900886c7a,English,"British Sign Language, a little tourist French, a little tourist Spanish","Evaluating Japanese words, saying how we rated the sound of them in comparison to their meaning.",1,4,EXHAUSTED,0,1252,hoQkori,hoQkori_EXHAUSTED
602962dea01dee8900886c7a,English,"British Sign Language, a little tourist French, a little tourist Spanish","Evaluating Japanese words, saying how we rated the sound of them in comparison to their meaning.",1,5,EXHAUSTED,0,1657,syiNdo,syiNdo_EXHAUSTED
602962dea01dee8900886c7a,English,"British Sign Language, a little tourist French, a little tourist Spanish","Evaluating Japanese words, saying how we rated the sound of them in comparison to their meaning.",1,6,ANNOYED,2,2194,yaNdagunaruQ,yaNdagunaruQ_ANNOYED
602962dea01dee8900886c7a,English,"British Sign Language, a little tourist French, a little tourist Spanish","Evaluating Japanese words, saying how we rated the sound of them in comparison to their meaning.",1,7,SPEEDY,5,2407,hayai,hayai_FAST
602962dea01dee8900886c7a,English,"British Sign Language, a little tourist French, a little tourist Spanish","Evaluating Japanese words, saying how we rated the sound of them in comparison to their meaning.",1,8,TINGLING,1,4163,hirihiri,hirihiri_BURNING
602962dea01dee8900886c7a,English,"British Sign Language, a little tourist French, a little tourist Spanish","Evaluating Japanese words, saying how we rated the sound of them in comparison to their meaning.",1,9,SOGGY,1,1963,syimeQpoi,syimeQpoi_WET
602962dea01dee8900886c7a,English,"British Sign Language, a little tourist French, a little tourist Spanish","Evaluating Japanese words, saying how we rated the sound of them in comparison to their meaning.",1,10,POUNDING (E.G. HEART),6,1377,dokidoki,dokidoki_POUNDING (e.g. heart)
602962dea01dee8900886c7a,English,"British Sign Language, a little tourist French, a little tourist Spanish","Evaluating Japanese words, saying how we rated the sound of them in comparison to their meaning.",1,11,ARROGANT,0,1252,adzu,adzu_RUDE
602962dea01dee8900886c7a,English,"British Sign Language, a little tourist French, a little tourist Spanish","Evaluating Japanese words, saying how we rated the sound of them in comparison to their meaning.",1,12,ITCHING,4,1460,syikasyika,syikasyika_ITCHING
602962dea01dee8900886c7a,English,"British Sign Language, a little tourist French, a little tourist Spanish","Evaluating Japanese words, saying how we rated the sound of them in comparison to their meaning.",1,13,FREEZE,0,1033,syibareru,syibareru_FREEZE
602962dea01dee8900886c7a,English,"British Sign Language, a little tourist French, a little tourist Spanish","Evaluating Japanese words, saying how we rated the sound of them in comparison to their meaning.",1,14,QUIET,0,1431,syiiN,syiiN_QUIET
602962dea01dee8900886c7a,English,"British Sign Language, a little tourist French, a little tourist Spanish","Evaluating Japanese words, saying how we rated the sound of them in comparison to their meaning.",1,15,THROBBING,5,2099,zuNzuN,zuNzuN_THROBBING
602962dea01dee8900886c7a,English,"British Sign Language, a little tourist French, a little tourist Spanish","Evaluating Japanese words, saying how we rated the sound of them in comparison to their meaning.",1,16,REFRESHED,0,1393,haQkiri,haQkiri_CLEAR
602962dea01dee8900886c7a,English,"British Sign Language, a little tourist French, a little tourist Spanish","Evaluating Japanese words, saying how we rated the sound of them in comparison to their meaning.",1,17,ANNOYED,0,1032,zyireQtai,zyireQtai_ANNOYED
602962dea01dee8900886c7a,English,"British Sign Language, a little tourist French, a little tourist Spanish","Evaluating Japanese words, saying how we rated the sound of them in comparison to their meaning.",1,18,LETHARGIC,2,3896,naNgii,naNgii_SLUGGISH
602962dea01dee8900886c7a,English,"British Sign Language, a little tourist French, a little tourist Spanish","Evaluating Japanese words, saying how we rated the sound of them in comparison to their meaning.",1,19,GOOEY,4,3872,nurunuru,nurunuru_STICKY
602962dea01dee8900886c7a,English,"British Sign Language, a little tourist French, a little tourist Spanish","Evaluating Japanese words, saying how we rated the sound of them in comparison to their meaning.",1,20,BRAZEN,0,1165,tyiputoi,tyiputoi_RUDE
602962dea01dee8900886c7a,English,"British Sign Language, a little tourist French, a little tourist Spanish","Evaluating Japanese words, saying how we rated the sound of them in comparison to their meaning.",1,21,TICKLING,0,2270,kosobai,kosobai_TICKLING
602962dea01dee8900886c7a,English,"British Sign Language, a little tourist French, a little tourist Spanish","Evaluating Japanese words, saying how we rated the sound of them in comparison to their meaning.",1,22,EXHAUSTED,0,1496,kutabireta,kutabireta_EXHAUSTED
602962dea01dee8900886c7a,English,"British Sign Language, a little tourist French, a little tourist Spanish","Evaluating Japanese words, saying how we rated the sound of them in comparison to their meaning.",1,23,TEAR,0,810,yabuku,yabuku_TEAR
602962dea01dee8900886c7a,English,"British Sign Language, a little tourist French, a little tourist Spanish","Evaluating Japanese words, saying how we rated the sound of them in comparison to their meaning.",1,24,LETHARGIC,0,1309,erai,erai_SLUGGISH
602962dea01dee8900886c7a,English,"British Sign Language, a little tourist French, a little tourist Spanish","Evaluating Japanese words, saying how we rated the sound of them in comparison to their meaning.",1,25,LITTLE,0,920,hosoi,hosoi_SMALL
602962dea01dee8900886c7a,English,"British Sign Language, a little tourist French, a little tourist Spanish","Evaluating Japanese words, saying how we rated the sound of them in comparison to their meaning.",1,26,TINGLING,4,2211,kaii,kaii_PRICKLING
602962dea01dee8900886c7a,English,"British Sign Language, a little tourist French, a little tourist Spanish","Evaluating Japanese words, saying how we rated the sound of them in comparison to their meaning.",1,27,TICKLING,0,2088,kusuguQtee,kusuguQtee_TICKLING
602962dea01dee8900886c7a,English,"British Sign Language, a little tourist French, a little tourist Spanish","Evaluating Japanese words, saying how we rated the sound of them in comparison to their meaning.",1,28,OILY/HEAVY (FOOD),0,716,aburaQkoi,aburaQkoi_OILY/HEAVY (food)
602962dea01dee8900886c7a,English,"British Sign Language, a little tourist French, a little tourist Spanish","Evaluating Japanese words, saying how we rated the sound of them in comparison to their meaning.",1,29,SCRATCH,4,2482,kakazyiru,kakazyiru_SCRATCH
602962dea01dee8900886c7a,English,"British Sign Language, a little tourist French, a little tourist Spanish","Evaluating Japanese words, saying how we rated the sound of them in comparison to their meaning.",1,30,GLARING (LIGHT),0,913,hidoroQko,hidoroQko_GLARING (light)
602962dea01dee8900886c7a,English,"British Sign Language, a little tourist French, a little tourist Spanish","Evaluating Japanese words, saying how we rated the sound of them in comparison to their meaning.",1,31,TIGHTEN,0,1062,kubiru,kubiru_BIND
602962dea01dee8900886c7a,English,"British Sign Language, a little tourist French, a little tourist Spanish","Evaluating Japanese words, saying how we rated the sound of them in comparison to their meaning.",1,32,HARD,1,2367,katai,katai_HARD
602962dea01dee8900886c7a,English,"British Sign Language, a little tourist French, a little tourist Spanish","Evaluating Japanese words, saying how we rated the sound of them in comparison to their meaning.",1,33,HOPPING,5,1264,pyoNpyoN,pyoNpyoN_BOUNCING
602962dea01dee8900886c7a,English,"British Sign Language, a little tourist French, a little tourist Spanish","Evaluating Japanese words, saying how we rated the sound of them in comparison to their meaning.",1,34,WHISPERING,3,1614,hisohiso,hisohiso_WHISPERING
5973a2a29ffbd500014af4b7,English,None,Deciding whether JApanese words sound like their meaning,1,1,FLUFFY,4,7922,fuwafuwa,fuwafuwa_FLUFFY
5973a2a29ffbd500014af4b7,English,None,Deciding whether JApanese words sound like their meaning,1,2,WOBBLING,6,3360,yoroyoro,yoroyoro_WOBBLING
5973a2a29ffbd500014af4b7,English,None,Deciding whether JApanese words sound like their meaning,1,3,SLIGHTLY,0,817,tyobiQto,tyobiQto_A LITTLE
5973a2a29ffbd500014af4b7,English,None,Deciding whether JApanese words sound like their meaning,1,4,TIRED,0,1517,hoQkori,hoQkori_EXHAUSTED
5973a2a29ffbd500014af4b7,English,None,Deciding whether JApanese words sound like their meaning,1,5,EXHAUSTED,0,1902,syiNdo,syiNdo_EXHAUSTED
5973a2a29ffbd500014af4b7,English,None,Deciding whether JApanese words sound like their meaning,1,6,ANNOYED,1,2029,yaNdagunaruQ,yaNdagunaruQ_ANNOYED
5973a2a29ffbd500014af4b7,English,None,Deciding whether JApanese words sound like their meaning,1,7,QUICK,6,2372,hayai,hayai_FAST
5973a2a29ffbd500014af4b7,English,None,Deciding whether JApanese words sound like their meaning,1,8,BURNING,1,1724,hirihiri,hirihiri_BURNING
5973a2a29ffbd500014af4b7,English,None,Deciding whether JApanese words sound like their meaning,1,9,WET,0,840,syimeQpoi,syimeQpoi_WET
5973a2a29ffbd500014af4b7,English,None,Deciding whether JApanese words sound like their meaning,1,10,BEATING (E.G. HEART),5,1275,dokidoki,dokidoki_POUNDING (e.g. heart)
5973a2a29ffbd500014af4b7,English,None,Deciding whether JApanese words sound like their meaning,1,11,BRAZEN,0,1129,adzu,adzu_RUDE
5973a2a29ffbd500014af4b7,English,None,Deciding whether JApanese words sound like their meaning,1,12,ITCHING,6,1311,syikasyika,syikasyika_ITCHING
5973a2a29ffbd500014af4b7,English,None,Deciding whether JApanese words sound like their meaning,1,13,FREEZE,0,1903,syibareru,syibareru_FREEZE
5973a2a29ffbd500014af4b7,English,None,Deciding whether JApanese words sound like their meaning,1,14,QUIET,1,1677,syiiN,syiiN_QUIET
5973a2a29ffbd500014af4b7,English,None,Deciding whether JApanese words sound like their meaning,1,15,PULSATING,4,3192,zuNzuN,zuNzuN_THROBBING
5973a2a29ffbd500014af4b7,English,None,Deciding whether JApanese words sound like their meaning,1,16,REFRESHED,1,1261,haQkiri,haQkiri_CLEAR
5973a2a29ffbd500014af4b7,English,None,Deciding whether JApanese words sound like their meaning,1,17,ANNOYED,1,1861,zyireQtai,zyireQtai_ANNOYED
5973a2a29ffbd500014af4b7,English,None,Deciding whether JApanese words sound like their meaning,1,18,LETHARGIC,1,2544,naNgii,naNgii_SLUGGISH
5973a2a29ffbd500014af4b7,English,None,Deciding whether JApanese words sound like their meaning,1,19,GOOEY,2,2142,nurunuru,nurunuru_STICKY
5973a2a29ffbd500014af4b7,English,None,Deciding whether JApanese words sound like their meaning,1,20,ARROGANT,0,1093,tyiputoi,tyiputoi_RUDE
5973a2a29ffbd500014af4b7,English,None,Deciding whether JApanese words sound like their meaning,1,21,TICKLING,0,2379,kosobai,kosobai_TICKLING
5973a2a29ffbd500014af4b7,English,None,Deciding whether JApanese words sound like their meaning,1,22,TIRED,0,1365,kutabireta,kutabireta_EXHAUSTED
5973a2a29ffbd500014af4b7,English,None,Deciding whether JApanese words sound like their meaning,1,23,TEAR,1,2991,yabuku,yabuku_TEAR
5973a2a29ffbd500014af4b7,English,None,Deciding whether JApanese words sound like their meaning,1,24,SLUGGISH,0,1394,erai,erai_SLUGGISH
5973a2a29ffbd500014af4b7,English,None,Deciding whether JApanese words sound like their meaning,1,25,SMALL,1,1717,hosoi,hosoi_SMALL
5973a2a29ffbd500014af4b7,English,None,Deciding whether JApanese words sound like their meaning,1,26,SCRATCHING,0,2123,kaii,kaii_PRICKLING
5973a2a29ffbd500014af4b7,English,None,Deciding whether JApanese words sound like their meaning,1,27,TICKLING,0,973,kusuguQtee,kusuguQtee_TICKLING
5973a2a29ffbd500014af4b7,English,None,Deciding whether JApanese words sound like their meaning,1,28,OILY/HEAVY (FOOD),1,1774,aburaQkoi,aburaQkoi_OILY/HEAVY (food)
5973a2a29ffbd500014af4b7,English,None,Deciding whether JApanese words sound like their meaning,1,29,SCRATCH,1,3194,kakazyiru,kakazyiru_SCRATCH
5973a2a29ffbd500014af4b7,English,None,Deciding whether JApanese words sound like their meaning,1,30,GLARING (LIGHT),0,841,hidoroQko,hidoroQko_GLARING (light)
5973a2a29ffbd500014af4b7,English,None,Deciding whether JApanese words sound like their meaning,1,31,BIND,0,942,kubiru,kubiru_BIND
5973a2a29ffbd500014af4b7,English,None,Deciding whether JApanese words sound like their meaning,1,32,HARD,3,1069,katai,katai_HARD
5973a2a29ffbd500014af4b7,English,None,Deciding whether JApanese words sound like their meaning,1,33,HOPPING,6,776,pyoNpyoN,pyoNpyoN_BOUNCING
5973a2a29ffbd500014af4b7,English,None,Deciding whether JApanese words sound like their meaning,1,34,WHISPERING,5,2174,hisohiso,hisohiso_WHISPERING
61693b21fbf953323ceadf35,english,NA,rating if japanese words rsounded like they related to what they meant,1,1,FLUFFY,6,2299,fuwafuwa,fuwafuwa_FLUFFY
61693b21fbf953323ceadf35,english,NA,rating if japanese words rsounded like they related to what they meant,1,2,WOBBLING,1,2111,yoroyoro,yoroyoro_WOBBLING
61693b21fbf953323ceadf35,english,NA,rating if japanese words rsounded like they related to what they meant,1,3,SLIGHTLY,1,1559,tyobiQto,tyobiQto_A LITTLE
61693b21fbf953323ceadf35,english,NA,rating if japanese words rsounded like they related to what they meant,1,4,TIRED,1,1088,hoQkori,hoQkori_EXHAUSTED
61693b21fbf953323ceadf35,english,NA,rating if japanese words rsounded like they related to what they meant,1,5,WEARY,2,2427,syiNdo,syiNdo_EXHAUSTED
61693b21fbf953323ceadf35,english,NA,rating if japanese words rsounded like they related to what they meant,1,6,ANNOYED,4,1496,yaNdagunaruQ,yaNdagunaruQ_ANNOYED
61693b21fbf953323ceadf35,english,NA,rating if japanese words rsounded like they related to what they meant,1,7,QUICK,4,1559,hayai,hayai_FAST
61693b21fbf953323ceadf35,english,NA,rating if japanese words rsounded like they related to what they meant,1,8,TINGLING,4,944,hirihiri,hirihiri_BURNING
61693b21fbf953323ceadf35,english,NA,rating if japanese words rsounded like they related to what they meant,1,9,SOGGY,1,1454,syimeQpoi,syimeQpoi_WET
61693b21fbf953323ceadf35,english,NA,rating if japanese words rsounded like they related to what they meant,1,10,DRUMMING (E.G. HEART),5,1586,dokidoki,dokidoki_POUNDING (e.g. heart)
61693b21fbf953323ceadf35,english,NA,rating if japanese words rsounded like they related to what they meant,1,11,RUDE,3,1647,adzu,adzu_RUDE
61693b21fbf953323ceadf35,english,NA,rating if japanese words rsounded like they related to what they meant,1,12,ITCHING,4,1667,syikasyika,syikasyika_ITCHING
61693b21fbf953323ceadf35,english,NA,rating if japanese words rsounded like they related to what they meant,1,13,FREEZE,1,1128,syibareru,syibareru_FREEZE
61693b21fbf953323ceadf35,english,NA,rating if japanese words rsounded like they related to what they meant,1,14,QUIET,1,1218,syiiN,syiiN_QUIET
61693b21fbf953323ceadf35,english,NA,rating if japanese words rsounded like they related to what they meant,1,15,PULSATING,6,1517,zuNzuN,zuNzuN_THROBBING
61693b21fbf953323ceadf35,english,NA,rating if japanese words rsounded like they related to what they meant,1,16,CLEAR,4,3233,haQkiri,haQkiri_CLEAR
61693b21fbf953323ceadf35,english,NA,rating if japanese words rsounded like they related to what they meant,1,17,IMPATIENT,1,754,zyireQtai,zyireQtai_ANNOYED
61693b21fbf953323ceadf35,english,NA,rating if japanese words rsounded like they related to what they meant,1,18,SLUGGISH,4,2047,naNgii,naNgii_SLUGGISH
61693b21fbf953323ceadf35,english,NA,rating if japanese words rsounded like they related to what they meant,1,19,GOOEY,4,1130,nurunuru,nurunuru_STICKY
61693b21fbf953323ceadf35,english,NA,rating if japanese words rsounded like they related to what they meant,1,20,RUDE,3,2184,tyiputoi,tyiputoi_RUDE
61693b21fbf953323ceadf35,english,NA,rating if japanese words rsounded like they related to what they meant,1,21,TICKLING,2,1076,kosobai,kosobai_TICKLING
61693b21fbf953323ceadf35,english,NA,rating if japanese words rsounded like they related to what they meant,1,22,EXHAUSTED,5,1932,kutabireta,kutabireta_EXHAUSTED
61693b21fbf953323ceadf35,english,NA,rating if japanese words rsounded like they related to what they meant,1,23,TEAR,1,1518,yabuku,yabuku_TEAR
61693b21fbf953323ceadf35,english,NA,rating if japanese words rsounded like they related to what they meant,1,24,SLUGGISH,1,1342,erai,erai_SLUGGISH
61693b21fbf953323ceadf35,english,NA,rating if japanese words rsounded like they related to what they meant,1,25,LITTLE,1,1690,hosoi,hosoi_SMALL
61693b21fbf953323ceadf35,english,NA,rating if japanese words rsounded like they related to what they meant,1,26,SCRATCHING,3,1686,kaii,kaii_PRICKLING
61693b21fbf953323ceadf35,english,NA,rating if japanese words rsounded like they related to what they meant,1,27,TICKLING,0,1433,kusuguQtee,kusuguQtee_TICKLING
61693b21fbf953323ceadf35,english,NA,rating if japanese words rsounded like they related to what they meant,1,28,OILY/HEAVY (FOOD),0,1967,aburaQkoi,aburaQkoi_OILY/HEAVY (food)
61693b21fbf953323ceadf35,english,NA,rating if japanese words rsounded like they related to what they meant,1,29,SCRATCH,4,1232,kakazyiru,kakazyiru_SCRATCH
61693b21fbf953323ceadf35,english,NA,rating if japanese words rsounded like they related to what they meant,1,30,DAZZLING,2,1260,hidoroQko,hidoroQko_GLARING (light)
61693b21fbf953323ceadf35,english,NA,rating if japanese words rsounded like they related to what they meant,1,31,TIGHTEN,1,2187,kubiru,kubiru_BIND
61693b21fbf953323ceadf35,english,NA,rating if japanese words rsounded like they related to what they meant,1,32,HARD,2,1458,katai,katai_HARD
61693b21fbf953323ceadf35,english,NA,rating if japanese words rsounded like they related to what they meant,1,33,HOPPING,2,1573,pyoNpyoN,pyoNpyoN_BOUNCING
61693b21fbf953323ceadf35,english,NA,rating if japanese words rsounded like they related to what they meant,1,34,WHISPERING,2,999,hisohiso,hisohiso_WHISPERING
5fef468cc9707d230796b7c3,English,A little french,I was tasked with listening to japanese words to see if they sound the same as their meaning.,1,1,FLUFFY,5,6399,fuwafuwa,fuwafuwa_FLUFFY
5fef468cc9707d230796b7c3,English,A little french,I was tasked with listening to japanese words to see if they sound the same as their meaning.,1,2,WOBBLING,4,3139,yoroyoro,yoroyoro_WOBBLING
5fef468cc9707d230796b7c3,English,A little french,I was tasked with listening to japanese words to see if they sound the same as their meaning.,1,3,SLIGHTLY,5,2379,tyobiQto,tyobiQto_A LITTLE
5fef468cc9707d230796b7c3,English,A little french,I was tasked with listening to japanese words to see if they sound the same as their meaning.,1,4,EXHAUSTED,4,2746,hoQkori,hoQkori_EXHAUSTED
5fef468cc9707d230796b7c3,English,A little french,I was tasked with listening to japanese words to see if they sound the same as their meaning.,1,5,TIRED,4,2179,syiNdo,syiNdo_EXHAUSTED
5fef468cc9707d230796b7c3,English,A little french,I was tasked with listening to japanese words to see if they sound the same as their meaning.,1,6,ANNOYED,0,1545,yaNdagunaruQ,yaNdagunaruQ_ANNOYED
5fef468cc9707d230796b7c3,English,A little french,I was tasked with listening to japanese words to see if they sound the same as their meaning.,1,7,QUICK,3,1470,hayai,hayai_FAST
5fef468cc9707d230796b7c3,English,A little french,I was tasked with listening to japanese words to see if they sound the same as their meaning.,1,8,TINGLING,1,2596,hirihiri,hirihiri_BURNING
5fef468cc9707d230796b7c3,English,A little french,I was tasked with listening to japanese words to see if they sound the same as their meaning.,1,9,SOGGY,0,20519,syimeQpoi,syimeQpoi_WET
5fef468cc9707d230796b7c3,English,A little french,I was tasked with listening to japanese words to see if they sound the same as their meaning.,1,10,POUNDING (E.G. HEART),6,2670,dokidoki,dokidoki_POUNDING (e.g. heart)
5fef468cc9707d230796b7c3,English,A little french,I was tasked with listening to japanese words to see if they sound the same as their meaning.,1,11,BRAZEN,4,1779,adzu,adzu_RUDE
5fef468cc9707d230796b7c3,English,A little french,I was tasked with listening to japanese words to see if they sound the same as their meaning.,1,12,ITCHING,0,1823,syikasyika,syikasyika_ITCHING
5fef468cc9707d230796b7c3,English,A little french,I was tasked with listening to japanese words to see if they sound the same as their meaning.,1,13,FREEZE,1,2031,syibareru,syibareru_FREEZE
5fef468cc9707d230796b7c3,English,A little french,I was tasked with listening to japanese words to see if they sound the same as their meaning.,1,14,QUIET,1,2568,syiiN,syiiN_QUIET
5fef468cc9707d230796b7c3,English,A little french,I was tasked with listening to japanese words to see if they sound the same as their meaning.,1,15,THROBBING,0,14879,zuNzuN,zuNzuN_THROBBING
5fef468cc9707d230796b7c3,English,A little french,I was tasked with listening to japanese words to see if they sound the same as their meaning.,1,16,CLEAR,1,1831,haQkiri,haQkiri_CLEAR
5fef468cc9707d230796b7c3,English,A little french,I was tasked with listening to japanese words to see if they sound the same as their meaning.,1,17,ANNOYED,2,1519,zyireQtai,zyireQtai_ANNOYED
5fef468cc9707d230796b7c3,English,A little french,I was tasked with listening to japanese words to see if they sound the same as their meaning.,1,18,SLUGGISH,1,3346,naNgii,naNgii_SLUGGISH
5fef468cc9707d230796b7c3,English,A little french,I was tasked with listening to japanese words to see if they sound the same as their meaning.,1,19,GLOOPY,0,1225,nurunuru,nurunuru_STICKY
5fef468cc9707d230796b7c3,English,A little french,I was tasked with listening to japanese words to see if they sound the same as their meaning.,1,20,ARROGANT,4,1311,tyiputoi,tyiputoi_RUDE
5fef468cc9707d230796b7c3,English,A little french,I was tasked with listening to japanese words to see if they sound the same as their meaning.,1,21,TICKLING,1,4113,kosobai,kosobai_TICKLING
5fef468cc9707d230796b7c3,English,A little french,I was tasked with listening to japanese words to see if they sound the same as their meaning.,1,22,EXHAUSTED,0,1561,kutabireta,kutabireta_EXHAUSTED
5fef468cc9707d230796b7c3,English,A little french,I was tasked with listening to japanese words to see if they sound the same as their meaning.,1,23,RIP,0,1967,yabuku,yabuku_TEAR
5fef468cc9707d230796b7c3,English,A little french,I was tasked with listening to japanese words to see if they sound the same as their meaning.,1,24,SLUGGISH,0,983,erai,erai_SLUGGISH
5fef468cc9707d230796b7c3,English,A little french,I was tasked with listening to japanese words to see if they sound the same as their meaning.,1,25,LITTLE,3,3565,hosoi,hosoi_SMALL
5fef468cc9707d230796b7c3,English,A little french,I was tasked with listening to japanese words to see if they sound the same as their meaning.,1,26,SCRATCHING,0,1511,kaii,kaii_PRICKLING
5fef468cc9707d230796b7c3,English,A little french,I was tasked with listening to japanese words to see if they sound the same as their meaning.,1,27,TICKLING,0,1860,kusuguQtee,kusuguQtee_TICKLING
5fef468cc9707d230796b7c3,English,A little french,I was tasked with listening to japanese words to see if they sound the same as their meaning.,1,28,OILY/HEAVY (FOOD),0,1456,aburaQkoi,aburaQkoi_OILY/HEAVY (food)
5fef468cc9707d230796b7c3,English,A little french,I was tasked with listening to japanese words to see if they sound the same as their meaning.,1,29,SCRATCH,1,1036,kakazyiru,kakazyiru_SCRATCH
5fef468cc9707d230796b7c3,English,A little french,I was tasked with listening to japanese words to see if they sound the same as their meaning.,1,30,BLINDING (LIGHT),2,4051,hidoroQko,hidoroQko_GLARING (light)
5fef468cc9707d230796b7c3,English,A little french,I was tasked with listening to japanese words to see if they sound the same as their meaning.,1,31,BIND,1,1560,kubiru,kubiru_BIND
5fef468cc9707d230796b7c3,English,A little french,I was tasked with listening to japanese words to see if they sound the same as their meaning.,1,32,HARD,0,1195,katai,katai_HARD
5fef468cc9707d230796b7c3,English,A little french,I was tasked with listening to japanese words to see if they sound the same as their meaning.,1,33,BOUNCING,4,1693,pyoNpyoN,pyoNpyoN_BOUNCING
5fef468cc9707d230796b7c3,English,A little french,I was tasked with listening to japanese words to see if they sound the same as their meaning.,1,34,WHISPERING,4,3443,hisohiso,hisohiso_WHISPERING
5f25387decb3ae191e98c3f4,English,French,Listening to Japanese words and rating how much they related to their meanings,1,1,FLUFFY,2,6898,fuwafuwa,fuwafuwa_FLUFFY
5f25387decb3ae191e98c3f4,English,French,Listening to Japanese words and rating how much they related to their meanings,1,2,WOBBLING,5,3693,yoroyoro,yoroyoro_WOBBLING
5f25387decb3ae191e98c3f4,English,French,Listening to Japanese words and rating how much they related to their meanings,1,3,A LITTLE,5,2471,tyobiQto,tyobiQto_A LITTLE
5f25387decb3ae191e98c3f4,English,French,Listening to Japanese words and rating how much they related to their meanings,1,4,WEARY,0,1082,hoQkori,hoQkori_EXHAUSTED
5f25387decb3ae191e98c3f4,English,French,Listening to Japanese words and rating how much they related to their meanings,1,5,TIRED,0,2235,syiNdo,syiNdo_EXHAUSTED
5f25387decb3ae191e98c3f4,English,French,Listening to Japanese words and rating how much they related to their meanings,1,6,ANNOYED,1,1610,yaNdagunaruQ,yaNdagunaruQ_ANNOYED
5f25387decb3ae191e98c3f4,English,French,Listening to Japanese words and rating how much they related to their meanings,1,7,QUICK,4,2657,hayai,hayai_FAST
5f25387decb3ae191e98c3f4,English,French,Listening to Japanese words and rating how much they related to their meanings,1,8,TINGLING,3,1313,hirihiri,hirihiri_BURNING
5f25387decb3ae191e98c3f4,English,French,Listening to Japanese words and rating how much they related to their meanings,1,9,SOGGY,1,2094,syimeQpoi,syimeQpoi_WET
5f25387decb3ae191e98c3f4,English,French,Listening to Japanese words and rating how much they related to their meanings,1,10,BEATING (E.G. HEART),4,2458,dokidoki,dokidoki_POUNDING (e.g. heart)
5f25387decb3ae191e98c3f4,English,French,Listening to Japanese words and rating how much they related to their meanings,1,11,RUDE,0,1224,adzu,adzu_RUDE
5f25387decb3ae191e98c3f4,English,French,Listening to Japanese words and rating how much they related to their meanings,1,12,ITCHING,6,1553,syikasyika,syikasyika_ITCHING
5f25387decb3ae191e98c3f4,English,French,Listening to Japanese words and rating how much they related to their meanings,1,13,FREEZE,1,1517,syibareru,syibareru_FREEZE
5f25387decb3ae191e98c3f4,English,French,Listening to Japanese words and rating how much they related to their meanings,1,14,QUIET,3,2148,syiiN,syiiN_QUIET
5f25387decb3ae191e98c3f4,English,French,Listening to Japanese words and rating how much they related to their meanings,1,15,PULSATING,4,1702,zuNzuN,zuNzuN_THROBBING
5f25387decb3ae191e98c3f4,English,French,Listening to Japanese words and rating how much they related to their meanings,1,16,CLEAR,1,3177,haQkiri,haQkiri_CLEAR
5f25387decb3ae191e98c3f4,English,French,Listening to Japanese words and rating how much they related to their meanings,1,17,IMPATIENT,0,1337,zyireQtai,zyireQtai_ANNOYED
5f25387decb3ae191e98c3f4,English,French,Listening to Japanese words and rating how much they related to their meanings,1,18,SLUGGISH,3,1471,naNgii,naNgii_SLUGGISH
5f25387decb3ae191e98c3f4,English,French,Listening to Japanese words and rating how much they related to their meanings,1,19,GLOOPY,4,1551,nurunuru,nurunuru_STICKY
5f25387decb3ae191e98c3f4,English,French,Listening to Japanese words and rating how much they related to their meanings,1,20,ARROGANT,0,925,tyiputoi,tyiputoi_RUDE
5f25387decb3ae191e98c3f4,English,French,Listening to Japanese words and rating how much they related to their meanings,1,21,TICKLING,0,1064,kosobai,kosobai_TICKLING
5f25387decb3ae191e98c3f4,English,French,Listening to Japanese words and rating how much they related to their meanings,1,22,WEARY,0,1787,kutabireta,kutabireta_EXHAUSTED
5f25387decb3ae191e98c3f4,English,French,Listening to Japanese words and rating how much they related to their meanings,1,23,RIP,0,1231,yabuku,yabuku_TEAR
5f25387decb3ae191e98c3f4,English,French,Listening to Japanese words and rating how much they related to their meanings,1,24,SLUGGISH,0,1081,erai,erai_SLUGGISH
5f25387decb3ae191e98c3f4,English,French,Listening to Japanese words and rating how much they related to their meanings,1,25,SMALL,0,1470,hosoi,hosoi_SMALL
5f25387decb3ae191e98c3f4,English,French,Listening to Japanese words and rating how much they related to their meanings,1,26,SCRATCHING,1,1719,kaii,kaii_PRICKLING
5f25387decb3ae191e98c3f4,English,French,Listening to Japanese words and rating how much they related to their meanings,1,27,TICKLING,0,1307,kusuguQtee,kusuguQtee_TICKLING
5f25387decb3ae191e98c3f4,English,French,Listening to Japanese words and rating how much they related to their meanings,1,28,OILY/HEAVY (FOOD),0,1322,aburaQkoi,aburaQkoi_OILY/HEAVY (food)
5f25387decb3ae191e98c3f4,English,French,Listening to Japanese words and rating how much they related to their meanings,1,29,SCRATCH,1,1884,kakazyiru,kakazyiru_SCRATCH
5f25387decb3ae191e98c3f4,English,French,Listening to Japanese words and rating how much they related to their meanings,1,30,DAZZLING,0,1330,hidoroQko,hidoroQko_GLARING (light)
5f25387decb3ae191e98c3f4,English,French,Listening to Japanese words and rating how much they related to their meanings,1,31,TIGHTEN,0,2092,kubiru,kubiru_BIND
5f25387decb3ae191e98c3f4,English,French,Listening to Japanese words and rating how much they related to their meanings,1,32,HARD,0,1042,katai,katai_HARD
5f25387decb3ae191e98c3f4,English,French,Listening to Japanese words and rating how much they related to their meanings,1,33,BOUNCING,6,1847,pyoNpyoN,pyoNpyoN_BOUNCING
5f25387decb3ae191e98c3f4,English,French,Listening to Japanese words and rating how much they related to their meanings,1,34,WHISPERING,5,1686,hisohiso,hisohiso_WHISPERING
5eea9502fd8990160be45c52,English,French,I was listening to Japanese words and rating them for how well they fit their meaning.,1,1,FLUFFY,6,3350,fuwafuwa,fuwafuwa_FLUFFY
5eea9502fd8990160be45c52,English,French,I was listening to Japanese words and rating them for how well they fit their meaning.,1,2,WOBBLING,6,3643,yoroyoro,yoroyoro_WOBBLING
5eea9502fd8990160be45c52,English,French,I was listening to Japanese words and rating them for how well they fit their meaning.,1,3,SLIGHTLY,4,1247,tyobiQto,tyobiQto_A LITTLE
5eea9502fd8990160be45c52,English,French,I was listening to Japanese words and rating them for how well they fit their meaning.,1,4,EXHAUSTED,2,1531,hoQkori,hoQkori_EXHAUSTED
5eea9502fd8990160be45c52,English,French,I was listening to Japanese words and rating them for how well they fit their meaning.,1,5,TIRED,5,2019,syiNdo,syiNdo_EXHAUSTED
5eea9502fd8990160be45c52,English,French,I was listening to Japanese words and rating them for how well they fit their meaning.,1,6,IMPATIENT,3,3262,yaNdagunaruQ,yaNdagunaruQ_ANNOYED
5eea9502fd8990160be45c52,English,French,I was listening to Japanese words and rating them for how well they fit their meaning.,1,7,FAST,2,2952,hayai,hayai_FAST
5eea9502fd8990160be45c52,English,French,I was listening to Japanese words and rating them for how well they fit their meaning.,1,8,TINGLING,1,3832,hirihiri,hirihiri_BURNING
5eea9502fd8990160be45c52,English,French,I was listening to Japanese words and rating them for how well they fit their meaning.,1,9,DAMP,3,1824,syimeQpoi,syimeQpoi_WET
5eea9502fd8990160be45c52,English,French,I was listening to Japanese words and rating them for how well they fit their meaning.,1,10,DRUMMING (E.G. HEART),6,812,dokidoki,dokidoki_POUNDING (e.g. heart)
5eea9502fd8990160be45c52,English,French,I was listening to Japanese words and rating them for how well they fit their meaning.,1,11,RUDE,6,1010,adzu,adzu_RUDE
5eea9502fd8990160be45c52,English,French,I was listening to Japanese words and rating them for how well they fit their meaning.,1,12,PRICKLING,5,1541,syikasyika,syikasyika_ITCHING
5eea9502fd8990160be45c52,English,French,I was listening to Japanese words and rating them for how well they fit their meaning.,1,13,FREEZE,1,6635,syibareru,syibareru_FREEZE
5eea9502fd8990160be45c52,English,French,I was listening to Japanese words and rating them for how well they fit their meaning.,1,14,QUIET,5,1692,syiiN,syiiN_QUIET
5eea9502fd8990160be45c52,English,French,I was listening to Japanese words and rating them for how well they fit their meaning.,1,15,THROBBING,4,1795,zuNzuN,zuNzuN_THROBBING
5eea9502fd8990160be45c52,English,French,I was listening to Japanese words and rating them for how well they fit their meaning.,1,16,REFRESHED,5,2495,haQkiri,haQkiri_CLEAR
5eea9502fd8990160be45c52,English,French,I was listening to Japanese words and rating them for how well they fit their meaning.,1,17,ANNOYED,5,1850,zyireQtai,zyireQtai_ANNOYED
5eea9502fd8990160be45c52,English,French,I was listening to Japanese words and rating them for how well they fit their meaning.,1,18,LETHARGIC,4,3925,naNgii,naNgii_SLUGGISH
5eea9502fd8990160be45c52,English,French,I was listening to Japanese words and rating them for how well they fit their meaning.,1,19,GOOEY,4,1919,nurunuru,nurunuru_STICKY
5eea9502fd8990160be45c52,English,French,I was listening to Japanese words and rating them for how well they fit their meaning.,1,20,ARROGANT,6,2458,tyiputoi,tyiputoi_RUDE
5eea9502fd8990160be45c52,English,French,I was listening to Japanese words and rating them for how well they fit their meaning.,1,21,TICKLING,1,2118,kosobai,kosobai_TICKLING
5eea9502fd8990160be45c52,English,French,I was listening to Japanese words and rating them for how well they fit their meaning.,1,22,TIRED,2,2626,kutabireta,kutabireta_EXHAUSTED
5eea9502fd8990160be45c52,English,French,I was listening to Japanese words and rating them for how well they fit their meaning.,1,23,RIP,1,2925,yabuku,yabuku_TEAR
5eea9502fd8990160be45c52,English,French,I was listening to Japanese words and rating them for how well they fit their meaning.,1,24,LETHARGIC,2,12369,erai,erai_SLUGGISH
5eea9502fd8990160be45c52,English,French,I was listening to Japanese words and rating them for how well they fit their meaning.,1,25,SMALL,4,2185,hosoi,hosoi_SMALL
5eea9502fd8990160be45c52,English,French,I was listening to Japanese words and rating them for how well they fit their meaning.,1,26,PRICKLING,3,3572,kaii,kaii_PRICKLING
5eea9502fd8990160be45c52,English,French,I was listening to Japanese words and rating them for how well they fit their meaning.,1,27,TICKLING,6,1977,kusuguQtee,kusuguQtee_TICKLING
5eea9502fd8990160be45c52,English,French,I was listening to Japanese words and rating them for how well they fit their meaning.,1,28,OILY/HEAVY (FOOD),1,2698,aburaQkoi,aburaQkoi_OILY/HEAVY (food)
5eea9502fd8990160be45c52,English,French,I was listening to Japanese words and rating them for how well they fit their meaning.,1,29,SCRATCH,1,1001,kakazyiru,kakazyiru_SCRATCH
5eea9502fd8990160be45c52,English,French,I was listening to Japanese words and rating them for how well they fit their meaning.,1,30,DAZZLING,4,1852,hidoroQko,hidoroQko_GLARING (light)
5eea9502fd8990160be45c52,English,French,I was listening to Japanese words and rating them for how well they fit their meaning.,1,31,TIGHTEN,4,1456,kubiru,kubiru_BIND
5eea9502fd8990160be45c52,English,French,I was listening to Japanese words and rating them for how well they fit their meaning.,1,32,HARD,6,1713,katai,katai_HARD
5eea9502fd8990160be45c52,English,French,I was listening to Japanese words and rating them for how well they fit their meaning.,1,33,BOUNCING,6,583,pyoNpyoN,pyoNpyoN_BOUNCING
5eea9502fd8990160be45c52,English,French,I was listening to Japanese words and rating them for how well they fit their meaning.,1,34,WHISPERING,6,708,hisohiso,hisohiso_WHISPERING
5bbd2bdcf7358a000171636f,English,NA,Assessing the similarity between the sound of Japanese words and their meaning.,1,1,FLUFFY,4,7507,fuwafuwa,fuwafuwa_FLUFFY
5bbd2bdcf7358a000171636f,English,NA,Assessing the similarity between the sound of Japanese words and their meaning.,1,2,WOBBLING,5,4531,yoroyoro,yoroyoro_WOBBLING
5bbd2bdcf7358a000171636f,English,NA,Assessing the similarity between the sound of Japanese words and their meaning.,1,3,A LITTLE,4,3176,tyobiQto,tyobiQto_A LITTLE
5bbd2bdcf7358a000171636f,English,NA,Assessing the similarity between the sound of Japanese words and their meaning.,1,4,TIRED,2,1090,hoQkori,hoQkori_EXHAUSTED
5bbd2bdcf7358a000171636f,English,NA,Assessing the similarity between the sound of Japanese words and their meaning.,1,5,WEARY,1,1602,syiNdo,syiNdo_EXHAUSTED
5bbd2bdcf7358a000171636f,English,NA,Assessing the similarity between the sound of Japanese words and their meaning.,1,6,ANNOYED,4,2041,yaNdagunaruQ,yaNdagunaruQ_ANNOYED
5bbd2bdcf7358a000171636f,English,NA,Assessing the similarity between the sound of Japanese words and their meaning.,1,7,SPEEDY,3,2065,hayai,hayai_FAST
5bbd2bdcf7358a000171636f,English,NA,Assessing the similarity between the sound of Japanese words and their meaning.,1,8,TINGLING,3,1900,hirihiri,hirihiri_BURNING
5bbd2bdcf7358a000171636f,English,NA,Assessing the similarity between the sound of Japanese words and their meaning.,1,9,DAMP,2,2957,syimeQpoi,syimeQpoi_WET
5bbd2bdcf7358a000171636f,English,NA,Assessing the similarity between the sound of Japanese words and their meaning.,1,10,BEATING (E.G. HEART),5,1383,dokidoki,dokidoki_POUNDING (e.g. heart)
5bbd2bdcf7358a000171636f,English,NA,Assessing the similarity between the sound of Japanese words and their meaning.,1,11,BRAZEN,2,1857,adzu,adzu_RUDE
5bbd2bdcf7358a000171636f,English,NA,Assessing the similarity between the sound of Japanese words and their meaning.,1,12,PRICKLING,4,1374,syikasyika,syikasyika_ITCHING
5bbd2bdcf7358a000171636f,English,NA,Assessing the similarity between the sound of Japanese words and their meaning.,1,13,FREEZE,1,1242,syibareru,syibareru_FREEZE
5bbd2bdcf7358a000171636f,English,NA,Assessing the similarity between the sound of Japanese words and their meaning.,1,14,QUIET,1,3626,syiiN,syiiN_QUIET
5bbd2bdcf7358a000171636f,English,NA,Assessing the similarity between the sound of Japanese words and their meaning.,1,15,THROBBING,5,1592,zuNzuN,zuNzuN_THROBBING
5bbd2bdcf7358a000171636f,English,NA,Assessing the similarity between the sound of Japanese words and their meaning.,1,16,REFRESHED,2,1156,haQkiri,haQkiri_CLEAR
5bbd2bdcf7358a000171636f,English,NA,Assessing the similarity between the sound of Japanese words and their meaning.,1,17,ANNOYED,4,1573,zyireQtai,zyireQtai_ANNOYED
5bbd2bdcf7358a000171636f,English,NA,Assessing the similarity between the sound of Japanese words and their meaning.,1,18,SLUGGISH,4,1178,naNgii,naNgii_SLUGGISH
5bbd2bdcf7358a000171636f,English,NA,Assessing the similarity between the sound of Japanese words and their meaning.,1,19,GLOOPY,3,3297,nurunuru,nurunuru_STICKY
5bbd2bdcf7358a000171636f,English,NA,Assessing the similarity between the sound of Japanese words and their meaning.,1,20,RUDE,2,1577,tyiputoi,tyiputoi_RUDE
5bbd2bdcf7358a000171636f,English,NA,Assessing the similarity between the sound of Japanese words and their meaning.,1,21,TICKLING,3,1541,kosobai,kosobai_TICKLING
5bbd2bdcf7358a000171636f,English,NA,Assessing the similarity between the sound of Japanese words and their meaning.,1,22,TIRED,2,1759,kutabireta,kutabireta_EXHAUSTED
5bbd2bdcf7358a000171636f,English,NA,Assessing the similarity between the sound of Japanese words and their meaning.,1,23,TEAR,2,5680,yabuku,yabuku_TEAR
5bbd2bdcf7358a000171636f,English,NA,Assessing the similarity between the sound of Japanese words and their meaning.,1,24,SLUGGISH,1,2552,erai,erai_SLUGGISH
5bbd2bdcf7358a000171636f,English,NA,Assessing the similarity between the sound of Japanese words and their meaning.,1,25,LITTLE,4,1524,hosoi,hosoi_SMALL
5bbd2bdcf7358a000171636f,English,NA,Assessing the similarity between the sound of Japanese words and their meaning.,1,26,TINGLING,3,2021,kaii,kaii_PRICKLING
5bbd2bdcf7358a000171636f,English,NA,Assessing the similarity between the sound of Japanese words and their meaning.,1,27,TICKLING,1,1282,kusuguQtee,kusuguQtee_TICKLING
5bbd2bdcf7358a000171636f,English,NA,Assessing the similarity between the sound of Japanese words and their meaning.,1,28,OILY/HEAVY (FOOD),2,6107,aburaQkoi,aburaQkoi_OILY/HEAVY (food)
5bbd2bdcf7358a000171636f,English,NA,Assessing the similarity between the sound of Japanese words and their meaning.,1,29,SCRATCH,3,1483,kakazyiru,kakazyiru_SCRATCH
5bbd2bdcf7358a000171636f,English,NA,Assessing the similarity between the sound of Japanese words and their meaning.,1,30,DAZZLING,1,1549,hidoroQko,hidoroQko_GLARING (light)
5bbd2bdcf7358a000171636f,English,NA,Assessing the similarity between the sound of Japanese words and their meaning.,1,31,TIGHTEN,2,1183,kubiru,kubiru_BIND
5bbd2bdcf7358a000171636f,English,NA,Assessing the similarity between the sound of Japanese words and their meaning.,1,32,HARD,5,2845,katai,katai_HARD
5bbd2bdcf7358a000171636f,English,NA,Assessing the similarity between the sound of Japanese words and their meaning.,1,33,BOUNCING,5,1393,pyoNpyoN,pyoNpyoN_BOUNCING
5bbd2bdcf7358a000171636f,English,NA,Assessing the similarity between the sound of Japanese words and their meaning.,1,34,WHISPERING,5,1329,hisohiso,hisohiso_WHISPERING
5bec64d236e6f000016514c9,English,NA,"Rating how well Japanese words sound like what they mean, like wiggle and jiggle do in English",1,1,FLUFFY,2,6839,fuwafuwa,fuwafuwa_FLUFFY
5bec64d236e6f000016514c9,English,NA,"Rating how well Japanese words sound like what they mean, like wiggle and jiggle do in English",1,2,WOBBLING,6,1496,yoroyoro,yoroyoro_WOBBLING
5bec64d236e6f000016514c9,English,NA,"Rating how well Japanese words sound like what they mean, like wiggle and jiggle do in English",1,3,SLIGHTLY,1,4494,tyobiQto,tyobiQto_A LITTLE
5bec64d236e6f000016514c9,English,NA,"Rating how well Japanese words sound like what they mean, like wiggle and jiggle do in English",1,4,WEARY,1,3382,hoQkori,hoQkori_EXHAUSTED
5bec64d236e6f000016514c9,English,NA,"Rating how well Japanese words sound like what they mean, like wiggle and jiggle do in English",1,5,EXHAUSTED,2,3356,syiNdo,syiNdo_EXHAUSTED
5bec64d236e6f000016514c9,English,NA,"Rating how well Japanese words sound like what they mean, like wiggle and jiggle do in English",1,6,ANNOYED,4,1562,yaNdagunaruQ,yaNdagunaruQ_ANNOYED
5bec64d236e6f000016514c9,English,NA,"Rating how well Japanese words sound like what they mean, like wiggle and jiggle do in English",1,7,FAST,4,3183,hayai,hayai_FAST
5bec64d236e6f000016514c9,English,NA,"Rating how well Japanese words sound like what they mean, like wiggle and jiggle do in English",1,8,TINGLING,5,3302,hirihiri,hirihiri_BURNING
5bec64d236e6f000016514c9,English,NA,"Rating how well Japanese words sound like what they mean, like wiggle and jiggle do in English",1,9,DAMP,0,2050,syimeQpoi,syimeQpoi_WET
5bec64d236e6f000016514c9,English,NA,"Rating how well Japanese words sound like what they mean, like wiggle and jiggle do in English",1,10,DRUMMING (E.G. HEART),6,2011,dokidoki,dokidoki_POUNDING (e.g. heart)
5bec64d236e6f000016514c9,English,NA,"Rating how well Japanese words sound like what they mean, like wiggle and jiggle do in English",1,11,RUDE,3,3115,adzu,adzu_RUDE
5bec64d236e6f000016514c9,English,NA,"Rating how well Japanese words sound like what they mean, like wiggle and jiggle do in English",1,12,PRICKLING,5,1435,syikasyika,syikasyika_ITCHING
5bec64d236e6f000016514c9,English,NA,"Rating how well Japanese words sound like what they mean, like wiggle and jiggle do in English",1,13,FREEZE,2,6595,syibareru,syibareru_FREEZE
5bec64d236e6f000016514c9,English,NA,"Rating how well Japanese words sound like what they mean, like wiggle and jiggle do in English",1,14,QUIET,3,3275,syiiN,syiiN_QUIET
5bec64d236e6f000016514c9,English,NA,"Rating how well Japanese words sound like what they mean, like wiggle and jiggle do in English",1,15,THROBBING,6,1708,zuNzuN,zuNzuN_THROBBING
5bec64d236e6f000016514c9,English,NA,"Rating how well Japanese words sound like what they mean, like wiggle and jiggle do in English",1,16,REFRESHED,1,3057,haQkiri,haQkiri_CLEAR
5bec64d236e6f000016514c9,English,NA,"Rating how well Japanese words sound like what they mean, like wiggle and jiggle do in English",1,17,IMPATIENT,1,3145,zyireQtai,zyireQtai_ANNOYED
5bec64d236e6f000016514c9,English,NA,"Rating how well Japanese words sound like what they mean, like wiggle and jiggle do in English",1,18,LETHARGIC,4,2932,naNgii,naNgii_SLUGGISH
5bec64d236e6f000016514c9,English,NA,"Rating how well Japanese words sound like what they mean, like wiggle and jiggle do in English",1,19,STICKY,2,4318,nurunuru,nurunuru_STICKY
5bec64d236e6f000016514c9,English,NA,"Rating how well Japanese words sound like what they mean, like wiggle and jiggle do in English",1,20,RUDE,4,6881,tyiputoi,tyiputoi_RUDE
5bec64d236e6f000016514c9,English,NA,"Rating how well Japanese words sound like what they mean, like wiggle and jiggle do in English",1,21,TICKLING,1,1959,kosobai,kosobai_TICKLING
5bec64d236e6f000016514c9,English,NA,"Rating how well Japanese words sound like what they mean, like wiggle and jiggle do in English",1,22,WEARY,0,1393,kutabireta,kutabireta_EXHAUSTED
5bec64d236e6f000016514c9,English,NA,"Rating how well Japanese words sound like what they mean, like wiggle and jiggle do in English",1,23,RIP,3,2170,yabuku,yabuku_TEAR
5bec64d236e6f000016514c9,English,NA,"Rating how well Japanese words sound like what they mean, like wiggle and jiggle do in English",1,24,SLUGGISH,0,4887,erai,erai_SLUGGISH
5bec64d236e6f000016514c9,English,NA,"Rating how well Japanese words sound like what they mean, like wiggle and jiggle do in English",1,25,LITTLE,2,5528,hosoi,hosoi_SMALL
5bec64d236e6f000016514c9,English,NA,"Rating how well Japanese words sound like what they mean, like wiggle and jiggle do in English",1,26,SCRATCHING,0,2664,kaii,kaii_PRICKLING
5bec64d236e6f000016514c9,English,NA,"Rating how well Japanese words sound like what they mean, like wiggle and jiggle do in English",1,27,TICKLING,4,1973,kusuguQtee,kusuguQtee_TICKLING
5bec64d236e6f000016514c9,English,NA,"Rating how well Japanese words sound like what they mean, like wiggle and jiggle do in English",1,28,OILY/HEAVY (FOOD),3,4999,aburaQkoi,aburaQkoi_OILY/HEAVY (food)
5bec64d236e6f000016514c9,English,NA,"Rating how well Japanese words sound like what they mean, like wiggle and jiggle do in English",1,29,SCRATCH,5,1731,kakazyiru,kakazyiru_SCRATCH
5bec64d236e6f000016514c9,English,NA,"Rating how well Japanese words sound like what they mean, like wiggle and jiggle do in English",1,30,GLARING (LIGHT),4,2591,hidoroQko,hidoroQko_GLARING (light)
5bec64d236e6f000016514c9,English,NA,"Rating how well Japanese words sound like what they mean, like wiggle and jiggle do in English",1,31,TIGHTEN,3,4370,kubiru,kubiru_BIND
5bec64d236e6f000016514c9,English,NA,"Rating how well Japanese words sound like what they mean, like wiggle and jiggle do in English",1,32,HARD,1,4042,katai,katai_HARD
5bec64d236e6f000016514c9,English,NA,"Rating how well Japanese words sound like what they mean, like wiggle and jiggle do in English",1,33,BOUNCING,6,1659,pyoNpyoN,pyoNpyoN_BOUNCING
5bec64d236e6f000016514c9,English,NA,"Rating how well Japanese words sound like what they mean, like wiggle and jiggle do in English",1,34,WHISPERING,6,4055,hisohiso,hisohiso_WHISPERING
5e110747dc265f7d25341439,English,None,Listen to Japanese words and indicate if they sound like their meaning,1,1,FLUFFY,2,7540,fuwafuwa,fuwafuwa_FLUFFY
5e110747dc265f7d25341439,English,None,Listen to Japanese words and indicate if they sound like their meaning,1,2,WOBBLING,4,1156,yoroyoro,yoroyoro_WOBBLING
5e110747dc265f7d25341439,English,None,Listen to Japanese words and indicate if they sound like their meaning,1,3,A LITTLE,0,1086,tyobiQto,tyobiQto_A LITTLE
5e110747dc265f7d25341439,English,None,Listen to Japanese words and indicate if they sound like their meaning,1,4,TIRED,3,679,hoQkori,hoQkori_EXHAUSTED
5e110747dc265f7d25341439,English,None,Listen to Japanese words and indicate if they sound like their meaning,1,5,TIRED,4,845,syiNdo,syiNdo_EXHAUSTED
5e110747dc265f7d25341439,English,None,Listen to Japanese words and indicate if they sound like their meaning,1,6,ANNOYED,4,713,yaNdagunaruQ,yaNdagunaruQ_ANNOYED
5e110747dc265f7d25341439,English,None,Listen to Japanese words and indicate if they sound like their meaning,1,7,QUICK,5,906,hayai,hayai_FAST
5e110747dc265f7d25341439,English,None,Listen to Japanese words and indicate if they sound like their meaning,1,8,TINGLING,0,585,hirihiri,hirihiri_BURNING
5e110747dc265f7d25341439,English,None,Listen to Japanese words and indicate if they sound like their meaning,1,9,DAMP,0,527,syimeQpoi,syimeQpoi_WET
5e110747dc265f7d25341439,English,None,Listen to Japanese words and indicate if they sound like their meaning,1,10,BEATING (E.G. HEART),5,691,dokidoki,dokidoki_POUNDING (e.g. heart)
5e110747dc265f7d25341439,English,None,Listen to Japanese words and indicate if they sound like their meaning,1,11,BRAZEN,0,641,adzu,adzu_RUDE
5e110747dc265f7d25341439,English,None,Listen to Japanese words and indicate if they sound like their meaning,1,12,PRICKLING,0,718,syikasyika,syikasyika_ITCHING
5e110747dc265f7d25341439,English,None,Listen to Japanese words and indicate if they sound like their meaning,1,13,FREEZE,0,515,syibareru,syibareru_FREEZE
5e110747dc265f7d25341439,English,None,Listen to Japanese words and indicate if they sound like their meaning,1,14,QUIET,3,2038,syiiN,syiiN_QUIET
5e110747dc265f7d25341439,English,None,Listen to Japanese words and indicate if they sound like their meaning,1,15,PULSATING,0,771,zuNzuN,zuNzuN_THROBBING
5e110747dc265f7d25341439,English,None,Listen to Japanese words and indicate if they sound like their meaning,1,16,REFRESHED,0,1518,haQkiri,haQkiri_CLEAR
5e110747dc265f7d25341439,English,None,Listen to Japanese words and indicate if they sound like their meaning,1,17,ANNOYED,1,936,zyireQtai,zyireQtai_ANNOYED
5e110747dc265f7d25341439,English,None,Listen to Japanese words and indicate if they sound like their meaning,1,18,LETHARGIC,0,1470,naNgii,naNgii_SLUGGISH
5e110747dc265f7d25341439,English,None,Listen to Japanese words and indicate if they sound like their meaning,1,19,STICKY,0,657,nurunuru,nurunuru_STICKY
5e110747dc265f7d25341439,English,None,Listen to Japanese words and indicate if they sound like their meaning,1,20,ARROGANT,4,765,tyiputoi,tyiputoi_RUDE
5e110747dc265f7d25341439,English,None,Listen to Japanese words and indicate if they sound like their meaning,1,21,TICKLING,0,790,kosobai,kosobai_TICKLING
5e110747dc265f7d25341439,English,None,Listen to Japanese words and indicate if they sound like their meaning,1,22,WEARY,1,1378,kutabireta,kutabireta_EXHAUSTED
5e110747dc265f7d25341439,English,None,Listen to Japanese words and indicate if they sound like their meaning,1,23,RIP,0,634,yabuku,yabuku_TEAR
5e110747dc265f7d25341439,English,None,Listen to Japanese words and indicate if they sound like their meaning,1,24,LETHARGIC,0,675,erai,erai_SLUGGISH
5e110747dc265f7d25341439,English,None,Listen to Japanese words and indicate if they sound like their meaning,1,25,LITTLE,3,1400,hosoi,hosoi_SMALL
5e110747dc265f7d25341439,English,None,Listen to Japanese words and indicate if they sound like their meaning,1,26,SCRATCHING,0,770,kaii,kaii_PRICKLING
5e110747dc265f7d25341439,English,None,Listen to Japanese words and indicate if they sound like their meaning,1,27,TICKLING,0,847,kusuguQtee,kusuguQtee_TICKLING
5e110747dc265f7d25341439,English,None,Listen to Japanese words and indicate if they sound like their meaning,1,28,OILY/HEAVY (FOOD),0,717,aburaQkoi,aburaQkoi_OILY/HEAVY (food)
5e110747dc265f7d25341439,English,None,Listen to Japanese words and indicate if they sound like their meaning,1,29,SCRATCH,0,689,kakazyiru,kakazyiru_SCRATCH
5e110747dc265f7d25341439,English,None,Listen to Japanese words and indicate if they sound like their meaning,1,30,BLINDING (LIGHT),0,815,hidoroQko,hidoroQko_GLARING (light)
5e110747dc265f7d25341439,English,None,Listen to Japanese words and indicate if they sound like their meaning,1,31,BIND,0,908,kubiru,kubiru_BIND
5e110747dc265f7d25341439,English,None,Listen to Japanese words and indicate if they sound like their meaning,1,32,HARD,0,748,katai,katai_HARD
5e110747dc265f7d25341439,English,None,Listen to Japanese words and indicate if they sound like their meaning,1,33,HOPPING,4,1138,pyoNpyoN,pyoNpyoN_BOUNCING
5e110747dc265f7d25341439,English,None,Listen to Japanese words and indicate if they sound like their meaning,1,34,WHISPERING,4,803,hisohiso,hisohiso_WHISPERING
57027b6768c641000e0c894a,English,NA,Listening to japanese words and rating if the are like the word,1,1,FLUFFY,4,6985,fuwafuwa,fuwafuwa_FLUFFY
57027b6768c641000e0c894a,English,NA,Listening to japanese words and rating if the are like the word,1,2,WOBBLING,6,2060,yoroyoro,yoroyoro_WOBBLING
57027b6768c641000e0c894a,English,NA,Listening to japanese words and rating if the are like the word,1,3,A LITTLE,2,1664,tyobiQto,tyobiQto_A LITTLE
57027b6768c641000e0c894a,English,NA,Listening to japanese words and rating if the are like the word,1,4,EXHAUSTED,2,1471,hoQkori,hoQkori_EXHAUSTED
57027b6768c641000e0c894a,English,NA,Listening to japanese words and rating if the are like the word,1,5,WEARY,2,2669,syiNdo,syiNdo_EXHAUSTED
57027b6768c641000e0c894a,English,NA,Listening to japanese words and rating if the are like the word,1,6,ANNOYED,3,1664,yaNdagunaruQ,yaNdagunaruQ_ANNOYED
57027b6768c641000e0c894a,English,NA,Listening to japanese words and rating if the are like the word,1,7,SPEEDY,4,1798,hayai,hayai_FAST
57027b6768c641000e0c894a,English,NA,Listening to japanese words and rating if the are like the word,1,8,TINGLING,4,2655,hirihiri,hirihiri_BURNING
57027b6768c641000e0c894a,English,NA,Listening to japanese words and rating if the are like the word,1,9,SOGGY,2,2603,syimeQpoi,syimeQpoi_WET
57027b6768c641000e0c894a,English,NA,Listening to japanese words and rating if the are like the word,1,10,DRUMMING (E.G. HEART),5,2061,dokidoki,dokidoki_POUNDING (e.g. heart)
57027b6768c641000e0c894a,English,NA,Listening to japanese words and rating if the are like the word,1,11,ARROGANT,4,2906,adzu,adzu_RUDE
57027b6768c641000e0c894a,English,NA,Listening to japanese words and rating if the are like the word,1,12,PRICKLING,5,1656,syikasyika,syikasyika_ITCHING
57027b6768c641000e0c894a,English,NA,Listening to japanese words and rating if the are like the word,1,13,FREEZE,2,1840,syibareru,syibareru_FREEZE
57027b6768c641000e0c894a,English,NA,Listening to japanese words and rating if the are like the word,1,14,QUIET,4,1601,syiiN,syiiN_QUIET
57027b6768c641000e0c894a,English,NA,Listening to japanese words and rating if the are like the word,1,15,THROBBING,4,1662,zuNzuN,zuNzuN_THROBBING
57027b6768c641000e0c894a,English,NA,Listening to japanese words and rating if the are like the word,1,16,CLEAR,3,1775,haQkiri,haQkiri_CLEAR
57027b6768c641000e0c894a,English,NA,Listening to japanese words and rating if the are like the word,1,17,ANNOYED,4,6803,zyireQtai,zyireQtai_ANNOYED
57027b6768c641000e0c894a,English,NA,Listening to japanese words and rating if the are like the word,1,18,SLUGGISH,4,1913,naNgii,naNgii_SLUGGISH
57027b6768c641000e0c894a,English,NA,Listening to japanese words and rating if the are like the word,1,19,GOOEY,4,3044,nurunuru,nurunuru_STICKY
57027b6768c641000e0c894a,English,NA,Listening to japanese words and rating if the are like the word,1,20,RUDE,2,1814,tyiputoi,tyiputoi_RUDE
57027b6768c641000e0c894a,English,NA,Listening to japanese words and rating if the are like the word,1,21,TICKLING,3,3862,kosobai,kosobai_TICKLING
57027b6768c641000e0c894a,English,NA,Listening to japanese words and rating if the are like the word,1,22,TIRED,1,3011,kutabireta,kutabireta_EXHAUSTED
57027b6768c641000e0c894a,English,NA,Listening to japanese words and rating if the are like the word,1,23,RIP,2,1864,yabuku,yabuku_TEAR
57027b6768c641000e0c894a,English,NA,Listening to japanese words and rating if the are like the word,1,24,SLUGGISH,2,2141,erai,erai_SLUGGISH
57027b6768c641000e0c894a,English,NA,Listening to japanese words and rating if the are like the word,1,25,LITTLE,3,1831,hosoi,hosoi_SMALL
57027b6768c641000e0c894a,English,NA,Listening to japanese words and rating if the are like the word,1,26,SCRATCHING,3,3005,kaii,kaii_PRICKLING
57027b6768c641000e0c894a,English,NA,Listening to japanese words and rating if the are like the word,1,27,TICKLING,3,3249,kusuguQtee,kusuguQtee_TICKLING
57027b6768c641000e0c894a,English,NA,Listening to japanese words and rating if the are like the word,1,28,OILY/HEAVY (FOOD),2,1672,aburaQkoi,aburaQkoi_OILY/HEAVY (food)
57027b6768c641000e0c894a,English,NA,Listening to japanese words and rating if the are like the word,1,29,SCRATCH,2,2474,kakazyiru,kakazyiru_SCRATCH
57027b6768c641000e0c894a,English,NA,Listening to japanese words and rating if the are like the word,1,30,GLARING (LIGHT),1,2759,hidoroQko,hidoroQko_GLARING (light)
57027b6768c641000e0c894a,English,NA,Listening to japanese words and rating if the are like the word,1,31,TIGHTEN,2,1889,kubiru,kubiru_BIND
57027b6768c641000e0c894a,English,NA,Listening to japanese words and rating if the are like the word,1,32,HARD,2,2449,katai,katai_HARD
57027b6768c641000e0c894a,English,NA,Listening to japanese words and rating if the are like the word,1,33,BOUNCING,5,1420,pyoNpyoN,pyoNpyoN_BOUNCING
57027b6768c641000e0c894a,English,NA,Listening to japanese words and rating if the are like the word,1,34,WHISPERING,5,1256,hisohiso,hisohiso_WHISPERING
5ea9c475ec2b531108f86a3f,English,Some German,Listening to Japanese words and judging if their sound was reflective of the action they were describing.,1,1,FLUFFY,4,4731,fuwafuwa,fuwafuwa_FLUFFY
5ea9c475ec2b531108f86a3f,English,Some German,Listening to Japanese words and judging if their sound was reflective of the action they were describing.,1,2,WOBBLING,5,1140,yoroyoro,yoroyoro_WOBBLING
5ea9c475ec2b531108f86a3f,English,Some German,Listening to Japanese words and judging if their sound was reflective of the action they were describing.,1,3,A LITTLE,3,3507,tyobiQto,tyobiQto_A LITTLE
5ea9c475ec2b531108f86a3f,English,Some German,Listening to Japanese words and judging if their sound was reflective of the action they were describing.,1,4,TIRED,3,743,hoQkori,hoQkori_EXHAUSTED
5ea9c475ec2b531108f86a3f,English,Some German,Listening to Japanese words and judging if their sound was reflective of the action they were describing.,1,5,WEARY,1,3658,syiNdo,syiNdo_EXHAUSTED
5ea9c475ec2b531108f86a3f,English,Some German,Listening to Japanese words and judging if their sound was reflective of the action they were describing.,1,6,IMPATIENT,0,3011,yaNdagunaruQ,yaNdagunaruQ_ANNOYED
5ea9c475ec2b531108f86a3f,English,Some German,Listening to Japanese words and judging if their sound was reflective of the action they were describing.,1,7,SPEEDY,1,1218,hayai,hayai_FAST
5ea9c475ec2b531108f86a3f,English,Some German,Listening to Japanese words and judging if their sound was reflective of the action they were describing.,1,8,BURNING,1,1458,hirihiri,hirihiri_BURNING
5ea9c475ec2b531108f86a3f,English,Some German,Listening to Japanese words and judging if their sound was reflective of the action they were describing.,1,9,WET,0,1244,syimeQpoi,syimeQpoi_WET
5ea9c475ec2b531108f86a3f,English,Some German,Listening to Japanese words and judging if their sound was reflective of the action they were describing.,1,10,BEATING (E.G. HEART),5,1692,dokidoki,dokidoki_POUNDING (e.g. heart)
5ea9c475ec2b531108f86a3f,English,Some German,Listening to Japanese words and judging if their sound was reflective of the action they were describing.,1,11,RUDE,0,812,adzu,adzu_RUDE
5ea9c475ec2b531108f86a3f,English,Some German,Listening to Japanese words and judging if their sound was reflective of the action they were describing.,1,12,ITCHING,3,1671,syikasyika,syikasyika_ITCHING
5ea9c475ec2b531108f86a3f,English,Some German,Listening to Japanese words and judging if their sound was reflective of the action they were describing.,1,13,FREEZE,0,1013,syibareru,syibareru_FREEZE
5ea9c475ec2b531108f86a3f,English,Some German,Listening to Japanese words and judging if their sound was reflective of the action they were describing.,1,14,QUIET,1,2307,syiiN,syiiN_QUIET
5ea9c475ec2b531108f86a3f,English,Some German,Listening to Japanese words and judging if their sound was reflective of the action they were describing.,1,15,THROBBING,5,2809,zuNzuN,zuNzuN_THROBBING
5ea9c475ec2b531108f86a3f,English,Some German,Listening to Japanese words and judging if their sound was reflective of the action they were describing.,1,16,CLEAR,0,6078,haQkiri,haQkiri_CLEAR
5ea9c475ec2b531108f86a3f,English,Some German,Listening to Japanese words and judging if their sound was reflective of the action they were describing.,1,17,ANNOYED,2,1764,zyireQtai,zyireQtai_ANNOYED
5ea9c475ec2b531108f86a3f,English,Some German,Listening to Japanese words and judging if their sound was reflective of the action they were describing.,1,18,LETHARGIC,4,1257,naNgii,naNgii_SLUGGISH
5ea9c475ec2b531108f86a3f,English,Some German,Listening to Japanese words and judging if their sound was reflective of the action they were describing.,1,19,STICKY,0,694,nurunuru,nurunuru_STICKY
5ea9c475ec2b531108f86a3f,English,Some German,Listening to Japanese words and judging if their sound was reflective of the action they were describing.,1,20,RUDE,0,1003,tyiputoi,tyiputoi_RUDE
5ea9c475ec2b531108f86a3f,English,Some German,Listening to Japanese words and judging if their sound was reflective of the action they were describing.,1,21,TICKLING,1,703,kosobai,kosobai_TICKLING
5ea9c475ec2b531108f86a3f,English,Some German,Listening to Japanese words and judging if their sound was reflective of the action they were describing.,1,22,WEARY,0,1379,kutabireta,kutabireta_EXHAUSTED
5ea9c475ec2b531108f86a3f,English,Some German,Listening to Japanese words and judging if their sound was reflective of the action they were describing.,1,23,TEAR,0,2580,yabuku,yabuku_TEAR
5ea9c475ec2b531108f86a3f,English,Some German,Listening to Japanese words and judging if their sound was reflective of the action they were describing.,1,24,LETHARGIC,0,1525,erai,erai_SLUGGISH
5ea9c475ec2b531108f86a3f,English,Some German,Listening to Japanese words and judging if their sound was reflective of the action they were describing.,1,25,TINY,0,936,hosoi,hosoi_SMALL
5ea9c475ec2b531108f86a3f,English,Some German,Listening to Japanese words and judging if their sound was reflective of the action they were describing.,1,26,TINGLING,0,1528,kaii,kaii_PRICKLING
5ea9c475ec2b531108f86a3f,English,Some German,Listening to Japanese words and judging if their sound was reflective of the action they were describing.,1,27,TICKLING,0,1765,kusuguQtee,kusuguQtee_TICKLING
5ea9c475ec2b531108f86a3f,English,Some German,Listening to Japanese words and judging if their sound was reflective of the action they were describing.,1,28,OILY/HEAVY (FOOD),0,2135,aburaQkoi,aburaQkoi_OILY/HEAVY (food)
5ea9c475ec2b531108f86a3f,English,Some German,Listening to Japanese words and judging if their sound was reflective of the action they were describing.,1,29,SCRATCH,1,1248,kakazyiru,kakazyiru_SCRATCH
5ea9c475ec2b531108f86a3f,English,Some German,Listening to Japanese words and judging if their sound was reflective of the action they were describing.,1,30,BLINDING (LIGHT),0,2319,hidoroQko,hidoroQko_GLARING (light)
5ea9c475ec2b531108f86a3f,English,Some German,Listening to Japanese words and judging if their sound was reflective of the action they were describing.,1,31,TIGHTEN,0,1540,kubiru,kubiru_BIND
5ea9c475ec2b531108f86a3f,English,Some German,Listening to Japanese words and judging if their sound was reflective of the action they were describing.,1,32,HARD,1,2206,katai,katai_HARD
5ea9c475ec2b531108f86a3f,English,Some German,Listening to Japanese words and judging if their sound was reflective of the action they were describing.,1,33,BOUNCING,5,1640,pyoNpyoN,pyoNpyoN_BOUNCING
5ea9c475ec2b531108f86a3f,English,Some German,Listening to Japanese words and judging if their sound was reflective of the action they were describing.,1,34,WHISPERING,2,1087,hisohiso,hisohiso_WHISPERING
59e46feb16ecc200016fef61,English,None,I had to listen to Japanese words to see if they sounded like their meaning.,1,1,FLUFFY,4,6853,fuwafuwa,fuwafuwa_FLUFFY
59e46feb16ecc200016fef61,English,None,I had to listen to Japanese words to see if they sounded like their meaning.,1,2,WOBBLING,6,2936,yoroyoro,yoroyoro_WOBBLING
59e46feb16ecc200016fef61,English,None,I had to listen to Japanese words to see if they sounded like their meaning.,1,3,A LITTLE,3,1848,tyobiQto,tyobiQto_A LITTLE
59e46feb16ecc200016fef61,English,None,I had to listen to Japanese words to see if they sounded like their meaning.,1,4,EXHAUSTED,0,1711,hoQkori,hoQkori_EXHAUSTED
59e46feb16ecc200016fef61,English,None,I had to listen to Japanese words to see if they sounded like their meaning.,1,5,TIRED,1,2656,syiNdo,syiNdo_EXHAUSTED
59e46feb16ecc200016fef61,English,None,I had to listen to Japanese words to see if they sounded like their meaning.,1,6,IMPATIENT,4,2808,yaNdagunaruQ,yaNdagunaruQ_ANNOYED
59e46feb16ecc200016fef61,English,None,I had to listen to Japanese words to see if they sounded like their meaning.,1,7,SPEEDY,4,1328,hayai,hayai_FAST
59e46feb16ecc200016fef61,English,None,I had to listen to Japanese words to see if they sounded like their meaning.,1,8,TINGLING,4,1520,hirihiri,hirihiri_BURNING
59e46feb16ecc200016fef61,English,None,I had to listen to Japanese words to see if they sounded like their meaning.,1,9,SOGGY,2,2720,syimeQpoi,syimeQpoi_WET
59e46feb16ecc200016fef61,English,None,I had to listen to Japanese words to see if they sounded like their meaning.,1,10,BEATING (E.G. HEART),6,3192,dokidoki,dokidoki_POUNDING (e.g. heart)
59e46feb16ecc200016fef61,English,None,I had to listen to Japanese words to see if they sounded like their meaning.,1,11,ARROGANT,4,2000,adzu,adzu_RUDE
59e46feb16ecc200016fef61,English,None,I had to listen to Japanese words to see if they sounded like their meaning.,1,12,ITCHING,4,1504,syikasyika,syikasyika_ITCHING
59e46feb16ecc200016fef61,English,None,I had to listen to Japanese words to see if they sounded like their meaning.,1,13,FREEZE,0,2216,syibareru,syibareru_FREEZE
59e46feb16ecc200016fef61,English,None,I had to listen to Japanese words to see if they sounded like their meaning.,1,14,QUIET,5,2191,syiiN,syiiN_QUIET
59e46feb16ecc200016fef61,English,None,I had to listen to Japanese words to see if they sounded like their meaning.,1,15,PULSATING,6,1392,zuNzuN,zuNzuN_THROBBING
59e46feb16ecc200016fef61,English,None,I had to listen to Japanese words to see if they sounded like their meaning.,1,16,REFRESHED,2,1628,haQkiri,haQkiri_CLEAR
59e46feb16ecc200016fef61,English,None,I had to listen to Japanese words to see if they sounded like their meaning.,1,17,IMPATIENT,0,2444,zyireQtai,zyireQtai_ANNOYED
59e46feb16ecc200016fef61,English,None,I had to listen to Japanese words to see if they sounded like their meaning.,1,18,LETHARGIC,1,3103,naNgii,naNgii_SLUGGISH
59e46feb16ecc200016fef61,English,None,I had to listen to Japanese words to see if they sounded like their meaning.,1,19,GOOEY,4,2945,nurunuru,nurunuru_STICKY
59e46feb16ecc200016fef61,English,None,I had to listen to Japanese words to see if they sounded like their meaning.,1,20,RUDE,2,2508,tyiputoi,tyiputoi_RUDE
59e46feb16ecc200016fef61,English,None,I had to listen to Japanese words to see if they sounded like their meaning.,1,21,TICKLING,0,3179,kosobai,kosobai_TICKLING
59e46feb16ecc200016fef61,English,None,I had to listen to Japanese words to see if they sounded like their meaning.,1,22,TIRED,0,4284,kutabireta,kutabireta_EXHAUSTED
59e46feb16ecc200016fef61,English,None,I had to listen to Japanese words to see if they sounded like their meaning.,1,23,TEAR,0,2376,yabuku,yabuku_TEAR
59e46feb16ecc200016fef61,English,None,I had to listen to Japanese words to see if they sounded like their meaning.,1,24,LETHARGIC,0,2520,erai,erai_SLUGGISH
59e46feb16ecc200016fef61,English,None,I had to listen to Japanese words to see if they sounded like their meaning.,1,25,LITTLE,2,1600,hosoi,hosoi_SMALL
59e46feb16ecc200016fef61,English,None,I had to listen to Japanese words to see if they sounded like their meaning.,1,26,SCRATCHING,0,3429,kaii,kaii_PRICKLING
59e46feb16ecc200016fef61,English,None,I had to listen to Japanese words to see if they sounded like their meaning.,1,27,TICKLING,2,2540,kusuguQtee,kusuguQtee_TICKLING
59e46feb16ecc200016fef61,English,None,I had to listen to Japanese words to see if they sounded like their meaning.,1,28,OILY/HEAVY (FOOD),2,1643,aburaQkoi,aburaQkoi_OILY/HEAVY (food)
59e46feb16ecc200016fef61,English,None,I had to listen to Japanese words to see if they sounded like their meaning.,1,29,SCRATCH,1,2616,kakazyiru,kakazyiru_SCRATCH
59e46feb16ecc200016fef61,English,None,I had to listen to Japanese words to see if they sounded like their meaning.,1,30,GLARING (LIGHT),0,2589,hidoroQko,hidoroQko_GLARING (light)
59e46feb16ecc200016fef61,English,None,I had to listen to Japanese words to see if they sounded like their meaning.,1,31,TIGHTEN,0,3144,kubiru,kubiru_BIND
59e46feb16ecc200016fef61,English,None,I had to listen to Japanese words to see if they sounded like their meaning.,1,32,HARD,2,3020,katai,katai_HARD
59e46feb16ecc200016fef61,English,None,I had to listen to Japanese words to see if they sounded like their meaning.,1,33,BOUNCING,6,2351,pyoNpyoN,pyoNpyoN_BOUNCING
59e46feb16ecc200016fef61,English,None,I had to listen to Japanese words to see if they sounded like their meaning.,1,34,WHISPERING,5,2112,hisohiso,hisohiso_WHISPERING
611d3570f180b1adea26816b,English,NA,"I was listening carefully to the Japanese words, particularly the pitch of the words and the flow of the words (if words sounded harsh, soft etc.) to gage whether they sounded like their meaning.",1,1,FLUFFY,2,5638,fuwafuwa,fuwafuwa_FLUFFY
611d3570f180b1adea26816b,English,NA,"I was listening carefully to the Japanese words, particularly the pitch of the words and the flow of the words (if words sounded harsh, soft etc.) to gage whether they sounded like their meaning.",1,2,WOBBLING,1,4808,yoroyoro,yoroyoro_WOBBLING
611d3570f180b1adea26816b,English,NA,"I was listening carefully to the Japanese words, particularly the pitch of the words and the flow of the words (if words sounded harsh, soft etc.) to gage whether they sounded like their meaning.",1,3,A LITTLE,2,7863,tyobiQto,tyobiQto_A LITTLE
611d3570f180b1adea26816b,English,NA,"I was listening carefully to the Japanese words, particularly the pitch of the words and the flow of the words (if words sounded harsh, soft etc.) to gage whether they sounded like their meaning.",1,4,EXHAUSTED,1,1980,hoQkori,hoQkori_EXHAUSTED
611d3570f180b1adea26816b,English,NA,"I was listening carefully to the Japanese words, particularly the pitch of the words and the flow of the words (if words sounded harsh, soft etc.) to gage whether they sounded like their meaning.",1,5,TIRED,2,2911,syiNdo,syiNdo_EXHAUSTED
611d3570f180b1adea26816b,English,NA,"I was listening carefully to the Japanese words, particularly the pitch of the words and the flow of the words (if words sounded harsh, soft etc.) to gage whether they sounded like their meaning.",1,6,ANNOYED,1,2167,yaNdagunaruQ,yaNdagunaruQ_ANNOYED
611d3570f180b1adea26816b,English,NA,"I was listening carefully to the Japanese words, particularly the pitch of the words and the flow of the words (if words sounded harsh, soft etc.) to gage whether they sounded like their meaning.",1,7,FAST,5,1550,hayai,hayai_FAST
611d3570f180b1adea26816b,English,NA,"I was listening carefully to the Japanese words, particularly the pitch of the words and the flow of the words (if words sounded harsh, soft etc.) to gage whether they sounded like their meaning.",1,8,TINGLING,5,1308,hirihiri,hirihiri_BURNING
611d3570f180b1adea26816b,English,NA,"I was listening carefully to the Japanese words, particularly the pitch of the words and the flow of the words (if words sounded harsh, soft etc.) to gage whether they sounded like their meaning.",1,9,DAMP,1,1444,syimeQpoi,syimeQpoi_WET
611d3570f180b1adea26816b,English,NA,"I was listening carefully to the Japanese words, particularly the pitch of the words and the flow of the words (if words sounded harsh, soft etc.) to gage whether they sounded like their meaning.",1,10,BEATING (E.G. HEART),4,2438,dokidoki,dokidoki_POUNDING (e.g. heart)
611d3570f180b1adea26816b,English,NA,"I was listening carefully to the Japanese words, particularly the pitch of the words and the flow of the words (if words sounded harsh, soft etc.) to gage whether they sounded like their meaning.",1,11,ARROGANT,5,2612,adzu,adzu_RUDE
611d3570f180b1adea26816b,English,NA,"I was listening carefully to the Japanese words, particularly the pitch of the words and the flow of the words (if words sounded harsh, soft etc.) to gage whether they sounded like their meaning.",1,12,ITCHING,6,1510,syikasyika,syikasyika_ITCHING
611d3570f180b1adea26816b,English,NA,"I was listening carefully to the Japanese words, particularly the pitch of the words and the flow of the words (if words sounded harsh, soft etc.) to gage whether they sounded like their meaning.",1,13,FREEZE,3,3778,syibareru,syibareru_FREEZE
611d3570f180b1adea26816b,English,NA,"I was listening carefully to the Japanese words, particularly the pitch of the words and the flow of the words (if words sounded harsh, soft etc.) to gage whether they sounded like their meaning.",1,14,QUIET,5,2979,syiiN,syiiN_QUIET
611d3570f180b1adea26816b,English,NA,"I was listening carefully to the Japanese words, particularly the pitch of the words and the flow of the words (if words sounded harsh, soft etc.) to gage whether they sounded like their meaning.",1,15,THROBBING,5,3965,zuNzuN,zuNzuN_THROBBING
611d3570f180b1adea26816b,English,NA,"I was listening carefully to the Japanese words, particularly the pitch of the words and the flow of the words (if words sounded harsh, soft etc.) to gage whether they sounded like their meaning.",1,16,REFRESHED,1,2111,haQkiri,haQkiri_CLEAR
611d3570f180b1adea26816b,English,NA,"I was listening carefully to the Japanese words, particularly the pitch of the words and the flow of the words (if words sounded harsh, soft etc.) to gage whether they sounded like their meaning.",1,17,ANNOYED,1,1567,zyireQtai,zyireQtai_ANNOYED
611d3570f180b1adea26816b,English,NA,"I was listening carefully to the Japanese words, particularly the pitch of the words and the flow of the words (if words sounded harsh, soft etc.) to gage whether they sounded like their meaning.",1,18,SLUGGISH,4,2842,naNgii,naNgii_SLUGGISH
611d3570f180b1adea26816b,English,NA,"I was listening carefully to the Japanese words, particularly the pitch of the words and the flow of the words (if words sounded harsh, soft etc.) to gage whether they sounded like their meaning.",1,19,GOOEY,1,4628,nurunuru,nurunuru_STICKY
611d3570f180b1adea26816b,English,NA,"I was listening carefully to the Japanese words, particularly the pitch of the words and the flow of the words (if words sounded harsh, soft etc.) to gage whether they sounded like their meaning.",1,20,RUDE,4,1658,tyiputoi,tyiputoi_RUDE
611d3570f180b1adea26816b,English,NA,"I was listening carefully to the Japanese words, particularly the pitch of the words and the flow of the words (if words sounded harsh, soft etc.) to gage whether they sounded like their meaning.",1,21,TICKLING,0,2501,kosobai,kosobai_TICKLING
611d3570f180b1adea26816b,English,NA,"I was listening carefully to the Japanese words, particularly the pitch of the words and the flow of the words (if words sounded harsh, soft etc.) to gage whether they sounded like their meaning.",1,22,WEARY,0,1998,kutabireta,kutabireta_EXHAUSTED
611d3570f180b1adea26816b,English,NA,"I was listening carefully to the Japanese words, particularly the pitch of the words and the flow of the words (if words sounded harsh, soft etc.) to gage whether they sounded like their meaning.",1,23,RIP,1,1403,yabuku,yabuku_TEAR
611d3570f180b1adea26816b,English,NA,"I was listening carefully to the Japanese words, particularly the pitch of the words and the flow of the words (if words sounded harsh, soft etc.) to gage whether they sounded like their meaning.",1,24,LETHARGIC,2,4013,erai,erai_SLUGGISH
611d3570f180b1adea26816b,English,NA,"I was listening carefully to the Japanese words, particularly the pitch of the words and the flow of the words (if words sounded harsh, soft etc.) to gage whether they sounded like their meaning.",1,25,TINY,3,10594,hosoi,hosoi_SMALL
611d3570f180b1adea26816b,English,NA,"I was listening carefully to the Japanese words, particularly the pitch of the words and the flow of the words (if words sounded harsh, soft etc.) to gage whether they sounded like their meaning.",1,26,PRICKLING,1,3151,kaii,kaii_PRICKLING
611d3570f180b1adea26816b,English,NA,"I was listening carefully to the Japanese words, particularly the pitch of the words and the flow of the words (if words sounded harsh, soft etc.) to gage whether they sounded like their meaning.",1,27,TICKLING,2,2924,kusuguQtee,kusuguQtee_TICKLING
611d3570f180b1adea26816b,English,NA,"I was listening carefully to the Japanese words, particularly the pitch of the words and the flow of the words (if words sounded harsh, soft etc.) to gage whether they sounded like their meaning.",1,28,OILY/HEAVY (FOOD),1,6613,aburaQkoi,aburaQkoi_OILY/HEAVY (food)
611d3570f180b1adea26816b,English,NA,"I was listening carefully to the Japanese words, particularly the pitch of the words and the flow of the words (if words sounded harsh, soft etc.) to gage whether they sounded like their meaning.",1,29,SCRATCH,4,5393,kakazyiru,kakazyiru_SCRATCH
611d3570f180b1adea26816b,English,NA,"I was listening carefully to the Japanese words, particularly the pitch of the words and the flow of the words (if words sounded harsh, soft etc.) to gage whether they sounded like their meaning.",1,30,BLINDING (LIGHT),1,3935,hidoroQko,hidoroQko_GLARING (light)
611d3570f180b1adea26816b,English,NA,"I was listening carefully to the Japanese words, particularly the pitch of the words and the flow of the words (if words sounded harsh, soft etc.) to gage whether they sounded like their meaning.",1,31,TIGHTEN,1,7008,kubiru,kubiru_BIND
611d3570f180b1adea26816b,English,NA,"I was listening carefully to the Japanese words, particularly the pitch of the words and the flow of the words (if words sounded harsh, soft etc.) to gage whether they sounded like their meaning.",1,32,HARD,4,5612,katai,katai_HARD
611d3570f180b1adea26816b,English,NA,"I was listening carefully to the Japanese words, particularly the pitch of the words and the flow of the words (if words sounded harsh, soft etc.) to gage whether they sounded like their meaning.",1,33,HOPPING,4,2151,pyoNpyoN,pyoNpyoN_BOUNCING
611d3570f180b1adea26816b,English,NA,"I was listening carefully to the Japanese words, particularly the pitch of the words and the flow of the words (if words sounded harsh, soft etc.) to gage whether they sounded like their meaning.",1,34,WHISPERING,5,6060,hisohiso,hisohiso_WHISPERING
5f551f435eceb78c98894fb8,English,N/A,Listening to Japanese words and rating how much they sounded like their meaning,2,1,FLUFFY,2,3636,fuwafuwa,fuwafuwa_FLUFFY
5f551f435eceb78c98894fb8,English,N/A,Listening to Japanese words and rating how much they sounded like their meaning,2,2,WOBBLING,4,2692,yoroyoro,yoroyoro_WOBBLING
5f551f435eceb78c98894fb8,English,N/A,Listening to Japanese words and rating how much they sounded like their meaning,2,3,SPASMING (E.G. IN STOMACH),3,3095,kirikiri,kirikiri_CRAMPING (e.g. in stomach)
5f551f435eceb78c98894fb8,English,N/A,Listening to Japanese words and rating how much they sounded like their meaning,2,4,SPLASHING,5,1915,taputapu,taputapu_SLOSHING
5f551f435eceb78c98894fb8,English,N/A,Listening to Japanese words and rating how much they sounded like their meaning,2,5,SPICY,2,1130,karai,karai_SPICY
5f551f435eceb78c98894fb8,English,N/A,Listening to Japanese words and rating how much they sounded like their meaning,2,6,HEAVY,4,2023,omoi,omoi_HEAVY
5f551f435eceb78c98894fb8,English,N/A,Listening to Japanese words and rating how much they sounded like their meaning,2,7,GRITTY,2,2610,zyasyizyasyi,zyasyizyasyi_ROUGH
5f551f435eceb78c98894fb8,English,N/A,Listening to Japanese words and rating how much they sounded like their meaning,2,8,BEATING (E.G. HEART),4,1323,bakubaku,bakubaku_POUNDING (e.g. heart)
5f551f435eceb78c98894fb8,English,N/A,Listening to Japanese words and rating how much they sounded like their meaning,2,9,FAT,5,2253,futoi,futoi_THICK
5f551f435eceb78c98894fb8,English,N/A,Listening to Japanese words and rating how much they sounded like their meaning,2,10,SQUISHY,0,1681,yarakai,yarakai_SOFT
5f551f435eceb78c98894fb8,English,N/A,Listening to Japanese words and rating how much they sounded like their meaning,2,11,PULSATING,2,2374,zukizuki,zukizuki_THROBBING
5f551f435eceb78c98894fb8,English,N/A,Listening to Japanese words and rating how much they sounded like their meaning,2,12,PINCHING,2,1752,tyiisoo,tyiisoo_TIGHT
5f551f435eceb78c98894fb8,English,N/A,Listening to Japanese words and rating how much they sounded like their meaning,2,13,IMPATIENT,5,1767,iraira,iraira_ANNOYED
5f551f435eceb78c98894fb8,English,N/A,Listening to Japanese words and rating how much they sounded like their meaning,2,14,FREEZE,1,1210,syimiru,syimiru_FREEZE
5f551f435eceb78c98894fb8,English,N/A,Listening to Japanese words and rating how much they sounded like their meaning,2,15,CLEAR,3,1979,syaN,syaN_CLEAR
5f551f435eceb78c98894fb8,English,N/A,Listening to Japanese words and rating how much they sounded like their meaning,2,16,SCARY,3,2821,kowa,kowa_SCARY
5f551f435eceb78c98894fb8,English,N/A,Listening to Japanese words and rating how much they sounded like their meaning,2,17,HUMID,1,1580,zyukazyuka,zyukazyuka_HUMID
5f551f435eceb78c98894fb8,English,N/A,Listening to Japanese words and rating how much they sounded like their meaning,2,18,LOUD,1,1626,ookii,ookii_LOUD
5f551f435eceb78c98894fb8,English,N/A,Listening to Japanese words and rating how much they sounded like their meaning,2,19,COLD,2,2148,hieQda,hieQda_COLD
5f551f435eceb78c98894fb8,English,N/A,Listening to Japanese words and rating how much they sounded like their meaning,2,20,WEARY,1,1729,tsukareta,tsukareta_EXHAUSTED
5f551f435eceb78c98894fb8,English,N/A,Listening to Japanese words and rating how much they sounded like their meaning,2,21,FLAT,1,1562,hiratai,hiratai_FLAT
5f551f435eceb78c98894fb8,English,N/A,Listening to Japanese words and rating how much they sounded like their meaning,2,22,TINGLING,1,1452,hiirakoi,hiirakoi_BURNING
5f551f435eceb78c98894fb8,English,N/A,Listening to Japanese words and rating how much they sounded like their meaning,2,23,ANNOYED,4,2114,iratyimonai,iratyimonai_ANNOYED
5f551f435eceb78c98894fb8,English,N/A,Listening to Japanese words and rating how much they sounded like their meaning,2,24,FRIGHTENING,1,1697,ezui,ezui_SCARY
5f551f435eceb78c98894fb8,English,N/A,Listening to Japanese words and rating how much they sounded like their meaning,2,25,SPACIOUS,2,1482,hiroi,hiroi_SPACIOUS
5f551f435eceb78c98894fb8,English,N/A,Listening to Japanese words and rating how much they sounded like their meaning,2,26,TINGLING,1,1681,egarai,egarai_PRICKLING
5f551f435eceb78c98894fb8,English,N/A,Listening to Japanese words and rating how much they sounded like their meaning,2,27,COLD,1,2533,tsumetee,tsumetee_COLD
5f551f435eceb78c98894fb8,English,N/A,Listening to Japanese words and rating how much they sounded like their meaning,2,28,SAD,2,3655,setsunai,setsunai_SAD
5f551f435eceb78c98894fb8,English,N/A,Listening to Japanese words and rating how much they sounded like their meaning,2,29,RUDE,3,3917,nobui,nobui_RUDE
5f551f435eceb78c98894fb8,English,N/A,Listening to Japanese words and rating how much they sounded like their meaning,2,30,GRITTY,1,1522,ookii,ookii_ROUGH
5f551f435eceb78c98894fb8,English,N/A,Listening to Japanese words and rating how much they sounded like their meaning,2,31,CHILLY,4,1431,syibityoo,syibityoo_COLD
5f551f435eceb78c98894fb8,English,N/A,Listening to Japanese words and rating how much they sounded like their meaning,2,32,HARD,1,1271,katai,katai_HARD
5f551f435eceb78c98894fb8,English,N/A,Listening to Japanese words and rating how much they sounded like their meaning,2,33,HOPPING,5,1685,pyoNpyoN,pyoNpyoN_BOUNCING
5f551f435eceb78c98894fb8,English,N/A,Listening to Japanese words and rating how much they sounded like their meaning,2,34,WHISPERING,1,1430,hisohiso,hisohiso_WHISPERING
5c094b4b1907db00016017d7,English,NA,Listening to an audio of a japanese word and then rating how strongly the pronunciation resembled the word,2,1,FLUFFY,4,5528,fuwafuwa,fuwafuwa_FLUFFY
5c094b4b1907db00016017d7,English,NA,Listening to an audio of a japanese word and then rating how strongly the pronunciation resembled the word,2,2,WOBBLING,6,799,yoroyoro,yoroyoro_WOBBLING
5c094b4b1907db00016017d7,English,NA,Listening to an audio of a japanese word and then rating how strongly the pronunciation resembled the word,2,3,CRAMPING (E.G. IN STOMACH),2,1434,kirikiri,kirikiri_CRAMPING (e.g. in stomach)
5c094b4b1907db00016017d7,English,NA,Listening to an audio of a japanese word and then rating how strongly the pronunciation resembled the word,2,4,SLOSHING,3,2148,taputapu,taputapu_SLOSHING
5c094b4b1907db00016017d7,English,NA,Listening to an audio of a japanese word and then rating how strongly the pronunciation resembled the word,2,5,SPICY,5,1556,karai,karai_SPICY
5c094b4b1907db00016017d7,English,NA,Listening to an audio of a japanese word and then rating how strongly the pronunciation resembled the word,2,6,HEAVY,6,1519,omoi,omoi_HEAVY
5c094b4b1907db00016017d7,English,NA,Listening to an audio of a japanese word and then rating how strongly the pronunciation resembled the word,2,7,COARSE,4,894,zyasyizyasyi,zyasyizyasyi_ROUGH
5c094b4b1907db00016017d7,English,NA,Listening to an audio of a japanese word and then rating how strongly the pronunciation resembled the word,2,8,DRUMMING (E.G. HEART),6,1751,bakubaku,bakubaku_POUNDING (e.g. heart)
5c094b4b1907db00016017d7,English,NA,Listening to an audio of a japanese word and then rating how strongly the pronunciation resembled the word,2,9,THICK,6,613,futoi,futoi_THICK
5c094b4b1907db00016017d7,English,NA,Listening to an audio of a japanese word and then rating how strongly the pronunciation resembled the word,2,10,SQUISHY,4,1151,yarakai,yarakai_SOFT
5c094b4b1907db00016017d7,English,NA,Listening to an audio of a japanese word and then rating how strongly the pronunciation resembled the word,2,11,PULSATING,6,1025,zukizuki,zukizuki_THROBBING
5c094b4b1907db00016017d7,English,NA,Listening to an audio of a japanese word and then rating how strongly the pronunciation resembled the word,2,12,TIGHT,5,1270,tyiisoo,tyiisoo_TIGHT
5c094b4b1907db00016017d7,English,NA,Listening to an audio of a japanese word and then rating how strongly the pronunciation resembled the word,2,13,IMPATIENT,3,1297,iraira,iraira_ANNOYED
5c094b4b1907db00016017d7,English,NA,Listening to an audio of a japanese word and then rating how strongly the pronunciation resembled the word,2,14,FREEZE,5,728,syimiru,syimiru_FREEZE
5c094b4b1907db00016017d7,English,NA,Listening to an audio of a japanese word and then rating how strongly the pronunciation resembled the word,2,15,CLEAR,3,1388,syaN,syaN_CLEAR
5c094b4b1907db00016017d7,English,NA,Listening to an audio of a japanese word and then rating how strongly the pronunciation resembled the word,2,16,SCARY,5,948,kowa,kowa_SCARY
5c094b4b1907db00016017d7,English,NA,Listening to an audio of a japanese word and then rating how strongly the pronunciation resembled the word,2,17,HUMID,4,556,zyukazyuka,zyukazyuka_HUMID
5c094b4b1907db00016017d7,English,NA,Listening to an audio of a japanese word and then rating how strongly the pronunciation resembled the word,2,18,NOISY,4,1861,ookii,ookii_LOUD
5c094b4b1907db00016017d7,English,NA,Listening to an audio of a japanese word and then rating how strongly the pronunciation resembled the word,2,19,CHILLY,1,1813,hieQda,hieQda_COLD
5c094b4b1907db00016017d7,English,NA,Listening to an audio of a japanese word and then rating how strongly the pronunciation resembled the word,2,20,EXHAUSTED,2,1666,tsukareta,tsukareta_EXHAUSTED
5c094b4b1907db00016017d7,English,NA,Listening to an audio of a japanese word and then rating how strongly the pronunciation resembled the word,2,21,FLAT,2,1632,hiratai,hiratai_FLAT
