prolificID,nativelang,otherlangs,taskdesc,experiment,trial,trans,rating,rt,form,identifier
5ff62f06932d5619964856a8,English,NA,Hearing Japanese words and saying the resemblance,1,1,WOBBLING,5,4250,yoroyoro,yoroyoro_WOBBLING
5ff62f06932d5619964856a8,English,NA,Hearing Japanese words and saying the resemblance,1,2,FLUFFY,2,1704,fuwafuwa,fuwafuwa_SOFT
5ff62f06932d5619964856a8,English,NA,Hearing Japanese words and saying the resemblance,1,3,WATERY (EYES),2,3115,syobosyobo,syobosyobo_WATERY (EYES)
5ff62f06932d5619964856a8,English,NA,Hearing Japanese words and saying the resemblance,1,4,ENERGETIC,5,2980,syaNsyaN,syaNsyaN_LIVELY
5ff62f06932d5619964856a8,English,NA,Hearing Japanese words and saying the resemblance,1,5,WEARY,2,2415,kaQtarii,kaQtarii_EXHAUSTED
5ff62f06932d5619964856a8,English,NA,Hearing Japanese words and saying the resemblance,1,6,PULSATING,3,990,hirihiri,hirihiri_THROBBING
5ff62f06932d5619964856a8,English,NA,Hearing Japanese words and saying the resemblance,1,7,CLEAN,6,2162,kiree,kiree_CLEAN
5ff62f06932d5619964856a8,English,NA,Hearing Japanese words and saying the resemblance,1,8,STUFFED (FROM EATING TOO MUCH),5,2402,kutyii,kutyii_STUFFED (FULL OF FOOD)
5ff62f06932d5619964856a8,English,NA,Hearing Japanese words and saying the resemblance,1,9,SUNNY,5,1483,akarui,akarui_BRIGHT
5ff62f06932d5619964856a8,English,NA,Hearing Japanese words and saying the resemblance,1,10,SHAKING,4,2210,uzyauzya,uzyauzya_SHAKING
5ff62f06932d5619964856a8,English,NA,Hearing Japanese words and saying the resemblance,1,11,IMPATIENT,2,2367,yakiyaki,yakiyaki_ANNOYED/IMPATIENT
5ff62f06932d5619964856a8,English,NA,Hearing Japanese words and saying the resemblance,1,12,TICKLING,1,1463,motyokoi,motyokoi_TICKLING
5ff62f06932d5619964856a8,English,NA,Hearing Japanese words and saying the resemblance,1,13,GOOEY,3,1593,nebaneba,nebaneba_STICKY
5ff62f06932d5619964856a8,English,NA,Hearing Japanese words and saying the resemblance,1,14,RINGING (E.G. A RINGING SOUND IN YOUR EARS),4,1785,tsuuN,tsuuN_RINGING
5ff62f06932d5619964856a8,English,NA,Hearing Japanese words and saying the resemblance,1,15,TIGHT,4,2518,kyuukutsuka,kyuukutsuka_TIGHT
5ff62f06932d5619964856a8,English,NA,Hearing Japanese words and saying the resemblance,1,16,COOL,3,1845,suzusyii,suzusyii_COOL
5ff62f06932d5619964856a8,English,NA,Hearing Japanese words and saying the resemblance,1,17,SHIVERS (DOWN YOUR SPINE),5,1379,zawazawa,zawazawa_SHIVERING
5ff62f06932d5619964856a8,English,NA,Hearing Japanese words and saying the resemblance,1,18,DAMP,3,2233,syiQpori,syiQpori_WET
5ff62f06932d5619964856a8,English,NA,Hearing Japanese words and saying the resemblance,1,19,SLICK,1,1477,nurunuru,nurunuru_SLIMY
5ff62f06932d5619964856a8,English,NA,Hearing Japanese words and saying the resemblance,1,20,SLIMY,1,1203,zuruNzuruN,zuruNzuruN_SLIMY
5ff62f06932d5619964856a8,English,NA,Hearing Japanese words and saying the resemblance,1,21,ROUGH,2,1341,zarazara,zarazara_ROUGH
5ff62f06932d5619964856a8,English,NA,Hearing Japanese words and saying the resemblance,1,22,MASSIVE,1,1470,igai,igai_BIG
5ff62f06932d5619964856a8,English,NA,Hearing Japanese words and saying the resemblance,1,23,DRY,3,1903,koragu,koragu_DRY
5ff62f06932d5619964856a8,English,NA,Hearing Japanese words and saying the resemblance,1,24,CUNNING,2,1351,kosui,kosui_CUNNING
5ff62f06932d5619964856a8,English,NA,Hearing Japanese words and saying the resemblance,1,25,ITCHING,5,2050,hasyikai,hasyikai_ITCHING
5ff62f06932d5619964856a8,English,NA,Hearing Japanese words and saying the resemblance,1,26,COLD,5,2144,sabui,sabui_COLD (WEATHER)
5ff62f06932d5619964856a8,English,NA,Hearing Japanese words and saying the resemblance,1,27,GLUM,1,1110,tsurai,tsurai_SAD
5ff62f06932d5619964856a8,English,NA,Hearing Japanese words and saying the resemblance,1,28,TIRED,5,1778,erai,erai_EXHAUSTED
5ff62f06932d5619964856a8,English,NA,Hearing Japanese words and saying the resemblance,1,29,HARD,1,1564,kowai,kowai_HARD
5ff62f06932d5619964856a8,English,NA,Hearing Japanese words and saying the resemblance,1,30,COARSE,6,1860,deQkai,deQkai_ROUGH
5ff62f06932d5619964856a8,English,NA,Hearing Japanese words and saying the resemblance,1,31,LETHARGIC,3,2119,koe,koe_SLUGGISH
5ff62f06932d5619964856a8,English,NA,Hearing Japanese words and saying the resemblance,1,32,HARD,2,1201,katai,katai_HARD
5ff62f06932d5619964856a8,English,NA,Hearing Japanese words and saying the resemblance,1,33,BOUNCING,5,1406,pyoNpyoN,pyoNpyoN_HOPPING
5ff62f06932d5619964856a8,English,NA,Hearing Japanese words and saying the resemblance,1,34,WHISPERING,6,1648,hisohiso,hisohiso_WHISPERING
60ceb80ed959c6e83794f961,English,None,Seeing how similar Japanese words sounded to their meaning,1,1,WOBBLING,6,1995,yoroyoro,yoroyoro_WOBBLING
60ceb80ed959c6e83794f961,English,None,Seeing how similar Japanese words sounded to their meaning,1,2,FLUFFY,0,1790,fuwafuwa,fuwafuwa_SOFT
60ceb80ed959c6e83794f961,English,None,Seeing how similar Japanese words sounded to their meaning,1,3,WATERY (EYES),1,805,syobosyobo,syobosyobo_WATERY (EYES)
60ceb80ed959c6e83794f961,English,None,Seeing how similar Japanese words sounded to their meaning,1,4,LIVELY,0,2479,syaNsyaN,syaNsyaN_LIVELY
60ceb80ed959c6e83794f961,English,None,Seeing how similar Japanese words sounded to their meaning,1,5,TIRED,2,1229,kaQtarii,kaQtarii_EXHAUSTED
60ceb80ed959c6e83794f961,English,None,Seeing how similar Japanese words sounded to their meaning,1,6,THROBBING,3,1198,hirihiri,hirihiri_THROBBING
60ceb80ed959c6e83794f961,English,None,Seeing how similar Japanese words sounded to their meaning,1,7,CLEAN,6,879,kiree,kiree_CLEAN
60ceb80ed959c6e83794f961,English,None,Seeing how similar Japanese words sounded to their meaning,1,8,STUFFED (FROM EATING TOO MUCH),4,1371,kutyii,kutyii_STUFFED (FULL OF FOOD)
60ceb80ed959c6e83794f961,English,None,Seeing how similar Japanese words sounded to their meaning,1,9,SUNNY,1,802,akarui,akarui_BRIGHT
60ceb80ed959c6e83794f961,English,None,Seeing how similar Japanese words sounded to their meaning,1,10,SHAKING,4,777,uzyauzya,uzyauzya_SHAKING
60ceb80ed959c6e83794f961,English,None,Seeing how similar Japanese words sounded to their meaning,1,11,IMPATIENT,5,1273,yakiyaki,yakiyaki_ANNOYED/IMPATIENT
60ceb80ed959c6e83794f961,English,None,Seeing how similar Japanese words sounded to their meaning,1,12,TICKLING,3,1078,motyokoi,motyokoi_TICKLING
60ceb80ed959c6e83794f961,English,None,Seeing how similar Japanese words sounded to their meaning,1,13,STICKY,1,2152,nebaneba,nebaneba_STICKY
60ceb80ed959c6e83794f961,English,None,Seeing how similar Japanese words sounded to their meaning,1,14,RINGING (E.G. A RINGING SOUND IN YOUR EARS),6,1822,tsuuN,tsuuN_RINGING
60ceb80ed959c6e83794f961,English,None,Seeing how similar Japanese words sounded to their meaning,1,15,TIGHT,0,1222,kyuukutsuka,kyuukutsuka_TIGHT
60ceb80ed959c6e83794f961,English,None,Seeing how similar Japanese words sounded to their meaning,1,16,FRESH,0,1309,suzusyii,suzusyii_COOL
60ceb80ed959c6e83794f961,English,None,Seeing how similar Japanese words sounded to their meaning,1,17,(SPINE) TINGLING,1,589,zawazawa,zawazawa_SHIVERING
60ceb80ed959c6e83794f961,English,None,Seeing how similar Japanese words sounded to their meaning,1,18,DAMP,0,937,syiQpori,syiQpori_WET
60ceb80ed959c6e83794f961,English,None,Seeing how similar Japanese words sounded to their meaning,1,19,SLIPPERY,4,3041,nurunuru,nurunuru_SLIMY
60ceb80ed959c6e83794f961,English,None,Seeing how similar Japanese words sounded to their meaning,1,20,SLIMY,0,725,zuruNzuruN,zuruNzuruN_SLIMY
60ceb80ed959c6e83794f961,English,None,Seeing how similar Japanese words sounded to their meaning,1,21,GRITTY,0,895,zarazara,zarazara_ROUGH
60ceb80ed959c6e83794f961,English,None,Seeing how similar Japanese words sounded to their meaning,1,22,LARGE,2,1487,igai,igai_BIG
60ceb80ed959c6e83794f961,English,None,Seeing how similar Japanese words sounded to their meaning,1,23,DRY,4,2450,koragu,koragu_DRY
60ceb80ed959c6e83794f961,English,None,Seeing how similar Japanese words sounded to their meaning,1,24,SLY,6,1181,kosui,kosui_CUNNING
60ceb80ed959c6e83794f961,English,None,Seeing how similar Japanese words sounded to their meaning,1,25,PRICKLING,0,1229,hasyikai,hasyikai_ITCHING
60ceb80ed959c6e83794f961,English,None,Seeing how similar Japanese words sounded to their meaning,1,26,CHILLY,4,1017,sabui,sabui_COLD (WEATHER)
60ceb80ed959c6e83794f961,English,None,Seeing how similar Japanese words sounded to their meaning,1,27,SAD,2,1794,tsurai,tsurai_SAD
60ceb80ed959c6e83794f961,English,None,Seeing how similar Japanese words sounded to their meaning,1,28,TIRED,4,2102,erai,erai_EXHAUSTED
60ceb80ed959c6e83794f961,English,None,Seeing how similar Japanese words sounded to their meaning,1,29,HARD,5,1362,kowai,kowai_HARD
60ceb80ed959c6e83794f961,English,None,Seeing how similar Japanese words sounded to their meaning,1,30,COARSE,2,1164,deQkai,deQkai_ROUGH
60ceb80ed959c6e83794f961,English,None,Seeing how similar Japanese words sounded to their meaning,1,31,SLUGGISH,2,1033,koe,koe_SLUGGISH
60ceb80ed959c6e83794f961,English,None,Seeing how similar Japanese words sounded to their meaning,1,32,HARD,1,884,katai,katai_HARD
60ceb80ed959c6e83794f961,English,None,Seeing how similar Japanese words sounded to their meaning,1,33,BOUNCING,6,862,pyoNpyoN,pyoNpyoN_HOPPING
60ceb80ed959c6e83794f961,English,None,Seeing how similar Japanese words sounded to their meaning,1,34,WHISPERING,4,1080,hisohiso,hisohiso_WHISPERING
5ea0a444ef1e88098befa2d7,English,NA,Listening to words to see if they sounded like their meaning,1,1,WOBBLING,3,17532,yoroyoro,yoroyoro_WOBBLING
5ea0a444ef1e88098befa2d7,English,NA,Listening to words to see if they sounded like their meaning,1,2,FLUFFY,5,3123,fuwafuwa,fuwafuwa_SOFT
5ea0a444ef1e88098befa2d7,English,NA,Listening to words to see if they sounded like their meaning,1,3,WATERY (EYES),1,2399,syobosyobo,syobosyobo_WATERY (EYES)
5ea0a444ef1e88098befa2d7,English,NA,Listening to words to see if they sounded like their meaning,1,4,LIVELY,3,6696,syaNsyaN,syaNsyaN_LIVELY
5ea0a444ef1e88098befa2d7,English,NA,Listening to words to see if they sounded like their meaning,1,5,TIRED,2,9970,kaQtarii,kaQtarii_EXHAUSTED
5ea0a444ef1e88098befa2d7,English,NA,Listening to words to see if they sounded like their meaning,1,6,PULSATING,6,3121,hirihiri,hirihiri_THROBBING
5ea0a444ef1e88098befa2d7,English,NA,Listening to words to see if they sounded like their meaning,1,7,CLEAN,3,1284,kiree,kiree_CLEAN
5ea0a444ef1e88098befa2d7,English,NA,Listening to words to see if they sounded like their meaning,1,8,STUFFED (FROM EATING TOO MUCH),4,4786,kutyii,kutyii_STUFFED (FULL OF FOOD)
5ea0a444ef1e88098befa2d7,English,NA,Listening to words to see if they sounded like their meaning,1,9,SUNNY,1,1520,akarui,akarui_BRIGHT
5ea0a444ef1e88098befa2d7,English,NA,Listening to words to see if they sounded like their meaning,1,10,TREMBLING,3,4569,uzyauzya,uzyauzya_SHAKING
5ea0a444ef1e88098befa2d7,English,NA,Listening to words to see if they sounded like their meaning,1,11,ANNOYED,4,2003,yakiyaki,yakiyaki_ANNOYED/IMPATIENT
5ea0a444ef1e88098befa2d7,English,NA,Listening to words to see if they sounded like their meaning,1,12,TICKLING,2,4558,motyokoi,motyokoi_TICKLING
5ea0a444ef1e88098befa2d7,English,NA,Listening to words to see if they sounded like their meaning,1,13,GOOEY,2,6877,nebaneba,nebaneba_STICKY
5ea0a444ef1e88098befa2d7,English,NA,Listening to words to see if they sounded like their meaning,1,14,RINGING (E.G. A RINGING SOUND IN YOUR EARS),3,18672,tsuuN,tsuuN_RINGING
5ea0a444ef1e88098befa2d7,English,NA,Listening to words to see if they sounded like their meaning,1,15,PINCHING,1,3272,kyuukutsuka,kyuukutsuka_TIGHT
5ea0a444ef1e88098befa2d7,English,NA,Listening to words to see if they sounded like their meaning,1,16,FRESH,0,3011,suzusyii,suzusyii_COOL
5ea0a444ef1e88098befa2d7,English,NA,Listening to words to see if they sounded like their meaning,1,17,SHIVERS (DOWN YOUR SPINE),4,5802,zawazawa,zawazawa_SHIVERING
5ea0a444ef1e88098befa2d7,English,NA,Listening to words to see if they sounded like their meaning,1,18,WET,0,2967,syiQpori,syiQpori_WET
5ea0a444ef1e88098befa2d7,English,NA,Listening to words to see if they sounded like their meaning,1,19,SLIPPERY,3,2489,nurunuru,nurunuru_SLIMY
5ea0a444ef1e88098befa2d7,English,NA,Listening to words to see if they sounded like their meaning,1,20,GOOEY,2,2464,zuruNzuruN,zuruNzuruN_SLIMY
5ea0a444ef1e88098befa2d7,English,NA,Listening to words to see if they sounded like their meaning,1,21,ROUGH,4,2439,zarazara,zarazara_ROUGH
5ea0a444ef1e88098befa2d7,English,NA,Listening to words to see if they sounded like their meaning,1,22,BIG,5,2530,igai,igai_BIG
5ea0a444ef1e88098befa2d7,English,NA,Listening to words to see if they sounded like their meaning,1,23,DRY,3,1820,koragu,koragu_DRY
5ea0a444ef1e88098befa2d7,English,NA,Listening to words to see if they sounded like their meaning,1,24,CUNNING,2,2396,kosui,kosui_CUNNING
5ea0a444ef1e88098befa2d7,English,NA,Listening to words to see if they sounded like their meaning,1,25,PRICKLING,1,6240,hasyikai,hasyikai_ITCHING
5ea0a444ef1e88098befa2d7,English,NA,Listening to words to see if they sounded like their meaning,1,26,COLD,3,2411,sabui,sabui_COLD (WEATHER)
5ea0a444ef1e88098befa2d7,English,NA,Listening to words to see if they sounded like their meaning,1,27,GLUM,1,1615,tsurai,tsurai_SAD
5ea0a444ef1e88098befa2d7,English,NA,Listening to words to see if they sounded like their meaning,1,28,EXHAUSTED,2,2390,erai,erai_EXHAUSTED
5ea0a444ef1e88098befa2d7,English,NA,Listening to words to see if they sounded like their meaning,1,29,HARD,4,1645,kowai,kowai_HARD
5ea0a444ef1e88098befa2d7,English,NA,Listening to words to see if they sounded like their meaning,1,30,GRITTY,5,7016,deQkai,deQkai_ROUGH
5ea0a444ef1e88098befa2d7,English,NA,Listening to words to see if they sounded like their meaning,1,31,SLUGGISH,4,2961,koe,koe_SLUGGISH
5ea0a444ef1e88098befa2d7,English,NA,Listening to words to see if they sounded like their meaning,1,32,HARD,4,11674,katai,katai_HARD
5ea0a444ef1e88098befa2d7,English,NA,Listening to words to see if they sounded like their meaning,1,33,HOPPING,5,1353,pyoNpyoN,pyoNpyoN_HOPPING
5ea0a444ef1e88098befa2d7,English,NA,Listening to words to see if they sounded like their meaning,1,34,WHISPERING,5,1144,hisohiso,hisohiso_WHISPERING
60cf0a7c3f4315bee0a2e593,English,NA,I was checking if the Japanese word when spoken sounded anything like the word.,1,1,WOBBLING,4,5211,yoroyoro,yoroyoro_WOBBLING
60cf0a7c3f4315bee0a2e593,English,NA,I was checking if the Japanese word when spoken sounded anything like the word.,1,2,FLUFFY,5,1022,fuwafuwa,fuwafuwa_SOFT
60cf0a7c3f4315bee0a2e593,English,NA,I was checking if the Japanese word when spoken sounded anything like the word.,1,3,BLEARY (EYES),0,988,syobosyobo,syobosyobo_WATERY (EYES)
60cf0a7c3f4315bee0a2e593,English,NA,I was checking if the Japanese word when spoken sounded anything like the word.,1,4,LIVELY,0,550,syaNsyaN,syaNsyaN_LIVELY
60cf0a7c3f4315bee0a2e593,English,NA,I was checking if the Japanese word when spoken sounded anything like the word.,1,5,TIRED,6,1552,kaQtarii,kaQtarii_EXHAUSTED
60cf0a7c3f4315bee0a2e593,English,NA,I was checking if the Japanese word when spoken sounded anything like the word.,1,6,THROBBING,0,872,hirihiri,hirihiri_THROBBING
60cf0a7c3f4315bee0a2e593,English,NA,I was checking if the Japanese word when spoken sounded anything like the word.,1,7,TIDY,0,1473,kiree,kiree_CLEAN
60cf0a7c3f4315bee0a2e593,English,NA,I was checking if the Japanese word when spoken sounded anything like the word.,1,8,STUFFED (FROM EATING TOO MUCH),0,3079,kutyii,kutyii_STUFFED (FULL OF FOOD)
60cf0a7c3f4315bee0a2e593,English,NA,I was checking if the Japanese word when spoken sounded anything like the word.,1,9,SUNNY,0,414,akarui,akarui_BRIGHT
60cf0a7c3f4315bee0a2e593,English,NA,I was checking if the Japanese word when spoken sounded anything like the word.,1,10,TREMBLING,0,1084,uzyauzya,uzyauzya_SHAKING
60cf0a7c3f4315bee0a2e593,English,NA,I was checking if the Japanese word when spoken sounded anything like the word.,1,11,IMPATIENT,0,405,yakiyaki,yakiyaki_ANNOYED/IMPATIENT
60cf0a7c3f4315bee0a2e593,English,NA,I was checking if the Japanese word when spoken sounded anything like the word.,1,12,TICKLING,3,1486,motyokoi,motyokoi_TICKLING
60cf0a7c3f4315bee0a2e593,English,NA,I was checking if the Japanese word when spoken sounded anything like the word.,1,13,STICKY,0,3690,nebaneba,nebaneba_STICKY
60cf0a7c3f4315bee0a2e593,English,NA,I was checking if the Japanese word when spoken sounded anything like the word.,1,14,RINGING (E.G. A RINGING SOUND IN YOUR EARS),0,740,tsuuN,tsuuN_RINGING
60cf0a7c3f4315bee0a2e593,English,NA,I was checking if the Japanese word when spoken sounded anything like the word.,1,15,TIGHT,0,1266,kyuukutsuka,kyuukutsuka_TIGHT
60cf0a7c3f4315bee0a2e593,English,NA,I was checking if the Japanese word when spoken sounded anything like the word.,1,16,FRESH,0,1493,suzusyii,suzusyii_COOL
60cf0a7c3f4315bee0a2e593,English,NA,I was checking if the Japanese word when spoken sounded anything like the word.,1,17,SHIVERS (DOWN YOUR SPINE),0,1464,zawazawa,zawazawa_SHIVERING
60cf0a7c3f4315bee0a2e593,English,NA,I was checking if the Japanese word when spoken sounded anything like the word.,1,18,DAMP,0,427,syiQpori,syiQpori_WET
60cf0a7c3f4315bee0a2e593,English,NA,I was checking if the Japanese word when spoken sounded anything like the word.,1,19,SLIPPERY,0,657,nurunuru,nurunuru_SLIMY
60cf0a7c3f4315bee0a2e593,English,NA,I was checking if the Japanese word when spoken sounded anything like the word.,1,20,SLIMY,0,438,zuruNzuruN,zuruNzuruN_SLIMY
60cf0a7c3f4315bee0a2e593,English,NA,I was checking if the Japanese word when spoken sounded anything like the word.,1,21,ROUGH,0,353,zarazara,zarazara_ROUGH
60cf0a7c3f4315bee0a2e593,English,NA,I was checking if the Japanese word when spoken sounded anything like the word.,1,22,MASSIVE,0,1167,igai,igai_BIG
60cf0a7c3f4315bee0a2e593,English,NA,I was checking if the Japanese word when spoken sounded anything like the word.,1,23,DRY,4,2167,koragu,koragu_DRY
60cf0a7c3f4315bee0a2e593,English,NA,I was checking if the Japanese word when spoken sounded anything like the word.,1,24,SNEAKY,0,567,kosui,kosui_CUNNING
60cf0a7c3f4315bee0a2e593,English,NA,I was checking if the Japanese word when spoken sounded anything like the word.,1,25,ITCHING,0,576,hasyikai,hasyikai_ITCHING
60cf0a7c3f4315bee0a2e593,English,NA,I was checking if the Japanese word when spoken sounded anything like the word.,1,26,CHILLY,4,1281,sabui,sabui_COLD (WEATHER)
60cf0a7c3f4315bee0a2e593,English,NA,I was checking if the Japanese word when spoken sounded anything like the word.,1,27,GLUM,0,1637,tsurai,tsurai_SAD
60cf0a7c3f4315bee0a2e593,English,NA,I was checking if the Japanese word when spoken sounded anything like the word.,1,28,WEARY,6,1228,erai,erai_EXHAUSTED
60cf0a7c3f4315bee0a2e593,English,NA,I was checking if the Japanese word when spoken sounded anything like the word.,1,29,HARD,0,296,kowai,kowai_HARD
60cf0a7c3f4315bee0a2e593,English,NA,I was checking if the Japanese word when spoken sounded anything like the word.,1,30,GRITTY,0,531,deQkai,deQkai_ROUGH
60cf0a7c3f4315bee0a2e593,English,NA,I was checking if the Japanese word when spoken sounded anything like the word.,1,31,SLUGGISH,0,1227,koe,koe_SLUGGISH
60cf0a7c3f4315bee0a2e593,English,NA,I was checking if the Japanese word when spoken sounded anything like the word.,1,32,HARD,0,1160,katai,katai_HARD
60cf0a7c3f4315bee0a2e593,English,NA,I was checking if the Japanese word when spoken sounded anything like the word.,1,33,BOUNCING,6,2661,pyoNpyoN,pyoNpyoN_HOPPING
60cf0a7c3f4315bee0a2e593,English,NA,I was checking if the Japanese word when spoken sounded anything like the word.,1,34,WHISPERING,0,883,hisohiso,hisohiso_WHISPERING
60ce01c71f2eaca4a5050416,English,English,This was an interesting task. I enjoyed finding out some Japanese words,1,1,WOBBLING,0,5151,yoroyoro,yoroyoro_WOBBLING
60ce01c71f2eaca4a5050416,English,English,This was an interesting task. I enjoyed finding out some Japanese words,1,2,FLUFFY,6,2177,fuwafuwa,fuwafuwa_SOFT
60ce01c71f2eaca4a5050416,English,English,This was an interesting task. I enjoyed finding out some Japanese words,1,3,WATERY (EYES),0,2503,syobosyobo,syobosyobo_WATERY (EYES)
60ce01c71f2eaca4a5050416,English,English,This was an interesting task. I enjoyed finding out some Japanese words,1,4,ENERGETIC,0,1520,syaNsyaN,syaNsyaN_LIVELY
60ce01c71f2eaca4a5050416,English,English,This was an interesting task. I enjoyed finding out some Japanese words,1,5,TIRED,0,1728,kaQtarii,kaQtarii_EXHAUSTED
60ce01c71f2eaca4a5050416,English,English,This was an interesting task. I enjoyed finding out some Japanese words,1,6,PULSATING,0,3010,hirihiri,hirihiri_THROBBING
60ce01c71f2eaca4a5050416,English,English,This was an interesting task. I enjoyed finding out some Japanese words,1,7,TIDY,5,1653,kiree,kiree_CLEAN
60ce01c71f2eaca4a5050416,English,English,This was an interesting task. I enjoyed finding out some Japanese words,1,8,FULL (FROM EATING),0,1123,kutyii,kutyii_STUFFED (FULL OF FOOD)
60ce01c71f2eaca4a5050416,English,English,This was an interesting task. I enjoyed finding out some Japanese words,1,9,SUNNY,0,1154,akarui,akarui_BRIGHT
60ce01c71f2eaca4a5050416,English,English,This was an interesting task. I enjoyed finding out some Japanese words,1,10,SHAKING,1,1222,uzyauzya,uzyauzya_SHAKING
60ce01c71f2eaca4a5050416,English,English,This was an interesting task. I enjoyed finding out some Japanese words,1,11,ANNOYED,1,3052,yakiyaki,yakiyaki_ANNOYED/IMPATIENT
60ce01c71f2eaca4a5050416,English,English,This was an interesting task. I enjoyed finding out some Japanese words,1,12,TICKLING,0,1075,motyokoi,motyokoi_TICKLING
60ce01c71f2eaca4a5050416,English,English,This was an interesting task. I enjoyed finding out some Japanese words,1,13,GOOEY,0,1098,nebaneba,nebaneba_STICKY
60ce01c71f2eaca4a5050416,English,English,This was an interesting task. I enjoyed finding out some Japanese words,1,14,RINGING (E.G. A RINGING SOUND IN YOUR EARS),0,1662,tsuuN,tsuuN_RINGING
60ce01c71f2eaca4a5050416,English,English,This was an interesting task. I enjoyed finding out some Japanese words,1,15,TIGHT,0,5676,kyuukutsuka,kyuukutsuka_TIGHT
60ce01c71f2eaca4a5050416,English,English,This was an interesting task. I enjoyed finding out some Japanese words,1,16,FRESH,4,1521,suzusyii,suzusyii_COOL
60ce01c71f2eaca4a5050416,English,English,This was an interesting task. I enjoyed finding out some Japanese words,1,17,SHIVERS (DOWN YOUR SPINE),2,4186,zawazawa,zawazawa_SHIVERING
60ce01c71f2eaca4a5050416,English,English,This was an interesting task. I enjoyed finding out some Japanese words,1,18,SOGGY,1,1542,syiQpori,syiQpori_WET
60ce01c71f2eaca4a5050416,English,English,This was an interesting task. I enjoyed finding out some Japanese words,1,19,SLICK,0,1144,nurunuru,nurunuru_SLIMY
60ce01c71f2eaca4a5050416,English,English,This was an interesting task. I enjoyed finding out some Japanese words,1,20,GOOEY,0,2252,zuruNzuruN,zuruNzuruN_SLIMY
60ce01c71f2eaca4a5050416,English,English,This was an interesting task. I enjoyed finding out some Japanese words,1,21,COARSE,0,1089,zarazara,zarazara_ROUGH
60ce01c71f2eaca4a5050416,English,English,This was an interesting task. I enjoyed finding out some Japanese words,1,22,HUGE,2,1958,igai,igai_BIG
60ce01c71f2eaca4a5050416,English,English,This was an interesting task. I enjoyed finding out some Japanese words,1,23,PARCHED,0,1681,koragu,koragu_DRY
60ce01c71f2eaca4a5050416,English,English,This was an interesting task. I enjoyed finding out some Japanese words,1,24,SNEAKY,2,2548,kosui,kosui_CUNNING
60ce01c71f2eaca4a5050416,English,English,This was an interesting task. I enjoyed finding out some Japanese words,1,25,ITCHING,3,1654,hasyikai,hasyikai_ITCHING
60ce01c71f2eaca4a5050416,English,English,This was an interesting task. I enjoyed finding out some Japanese words,1,26,CHILLY,2,1632,sabui,sabui_COLD (WEATHER)
60ce01c71f2eaca4a5050416,English,English,This was an interesting task. I enjoyed finding out some Japanese words,1,27,SAD,1,2403,tsurai,tsurai_SAD
60ce01c71f2eaca4a5050416,English,English,This was an interesting task. I enjoyed finding out some Japanese words,1,28,EXHAUSTED,0,1220,erai,erai_EXHAUSTED
60ce01c71f2eaca4a5050416,English,English,This was an interesting task. I enjoyed finding out some Japanese words,1,29,HARD,1,2105,kowai,kowai_HARD
60ce01c71f2eaca4a5050416,English,English,This was an interesting task. I enjoyed finding out some Japanese words,1,30,GRITTY,3,1332,deQkai,deQkai_ROUGH
60ce01c71f2eaca4a5050416,English,English,This was an interesting task. I enjoyed finding out some Japanese words,1,31,LETHARGIC,0,1353,koe,koe_SLUGGISH
60ce01c71f2eaca4a5050416,English,English,This was an interesting task. I enjoyed finding out some Japanese words,1,32,HARD,0,1906,katai,katai_HARD
60ce01c71f2eaca4a5050416,English,English,This was an interesting task. I enjoyed finding out some Japanese words,1,33,HOPPING,0,1446,pyoNpyoN,pyoNpyoN_HOPPING
60ce01c71f2eaca4a5050416,English,English,This was an interesting task. I enjoyed finding out some Japanese words,1,34,WHISPERING,1,2575,hisohiso,hisohiso_WHISPERING
60ccf2e72ef0587d5cc4e2cd,English,German,"Listening to Japanese spoken words and when given their meaning, rate how I thought each word resembles its meaning.",1,1,WOBBLING,1,8975,yoroyoro,yoroyoro_WOBBLING
60ccf2e72ef0587d5cc4e2cd,English,German,"Listening to Japanese spoken words and when given their meaning, rate how I thought each word resembles its meaning.",1,2,FLUFFY,5,3884,fuwafuwa,fuwafuwa_SOFT
60ccf2e72ef0587d5cc4e2cd,English,German,"Listening to Japanese spoken words and when given their meaning, rate how I thought each word resembles its meaning.",1,3,BLEARY (EYES),0,1207,syobosyobo,syobosyobo_WATERY (EYES)
60ccf2e72ef0587d5cc4e2cd,English,German,"Listening to Japanese spoken words and when given their meaning, rate how I thought each word resembles its meaning.",1,4,LIVELY,0,1124,syaNsyaN,syaNsyaN_LIVELY
60ccf2e72ef0587d5cc4e2cd,English,German,"Listening to Japanese spoken words and when given their meaning, rate how I thought each word resembles its meaning.",1,5,TIRED,0,2385,kaQtarii,kaQtarii_EXHAUSTED
60ccf2e72ef0587d5cc4e2cd,English,German,"Listening to Japanese spoken words and when given their meaning, rate how I thought each word resembles its meaning.",1,6,PULSATING,0,913,hirihiri,hirihiri_THROBBING
60ccf2e72ef0587d5cc4e2cd,English,German,"Listening to Japanese spoken words and when given their meaning, rate how I thought each word resembles its meaning.",1,7,CLEAN,4,1570,kiree,kiree_CLEAN
60ccf2e72ef0587d5cc4e2cd,English,German,"Listening to Japanese spoken words and when given their meaning, rate how I thought each word resembles its meaning.",1,8,FULL (FROM EATING),0,1279,kutyii,kutyii_STUFFED (FULL OF FOOD)
60ccf2e72ef0587d5cc4e2cd,English,German,"Listening to Japanese spoken words and when given their meaning, rate how I thought each word resembles its meaning.",1,9,BRIGHT,0,972,akarui,akarui_BRIGHT
60ccf2e72ef0587d5cc4e2cd,English,German,"Listening to Japanese spoken words and when given their meaning, rate how I thought each word resembles its meaning.",1,10,TREMBLING,1,1630,uzyauzya,uzyauzya_SHAKING
60ccf2e72ef0587d5cc4e2cd,English,German,"Listening to Japanese spoken words and when given their meaning, rate how I thought each word resembles its meaning.",1,11,ANNOYED,0,671,yakiyaki,yakiyaki_ANNOYED/IMPATIENT
60ccf2e72ef0587d5cc4e2cd,English,German,"Listening to Japanese spoken words and when given their meaning, rate how I thought each word resembles its meaning.",1,12,TICKLING,0,870,motyokoi,motyokoi_TICKLING
60ccf2e72ef0587d5cc4e2cd,English,German,"Listening to Japanese spoken words and when given their meaning, rate how I thought each word resembles its meaning.",1,13,GOOEY,0,533,nebaneba,nebaneba_STICKY
60ccf2e72ef0587d5cc4e2cd,English,German,"Listening to Japanese spoken words and when given their meaning, rate how I thought each word resembles its meaning.",1,14,RINGING (E.G. A RINGING SOUND IN YOUR EARS),0,1551,tsuuN,tsuuN_RINGING
60ccf2e72ef0587d5cc4e2cd,English,German,"Listening to Japanese spoken words and when given their meaning, rate how I thought each word resembles its meaning.",1,15,TIGHT,2,2205,kyuukutsuka,kyuukutsuka_TIGHT
60ccf2e72ef0587d5cc4e2cd,English,German,"Listening to Japanese spoken words and when given their meaning, rate how I thought each word resembles its meaning.",1,16,COOL,0,5234,suzusyii,suzusyii_COOL
60ccf2e72ef0587d5cc4e2cd,English,German,"Listening to Japanese spoken words and when given their meaning, rate how I thought each word resembles its meaning.",1,17,SHIVERS (DOWN YOUR SPINE),0,1829,zawazawa,zawazawa_SHIVERING
60ccf2e72ef0587d5cc4e2cd,English,German,"Listening to Japanese spoken words and when given their meaning, rate how I thought each word resembles its meaning.",1,18,WET,0,968,syiQpori,syiQpori_WET
60ccf2e72ef0587d5cc4e2cd,English,German,"Listening to Japanese spoken words and when given their meaning, rate how I thought each word resembles its meaning.",1,19,SLIPPERY,0,1199,nurunuru,nurunuru_SLIMY
60ccf2e72ef0587d5cc4e2cd,English,German,"Listening to Japanese spoken words and when given their meaning, rate how I thought each word resembles its meaning.",1,20,SLIMY,0,947,zuruNzuruN,zuruNzuruN_SLIMY
60ccf2e72ef0587d5cc4e2cd,English,German,"Listening to Japanese spoken words and when given their meaning, rate how I thought each word resembles its meaning.",1,21,ROUGH,0,861,zarazara,zarazara_ROUGH
60ccf2e72ef0587d5cc4e2cd,English,German,"Listening to Japanese spoken words and when given their meaning, rate how I thought each word resembles its meaning.",1,22,HUGE,4,1160,igai,igai_BIG
60ccf2e72ef0587d5cc4e2cd,English,German,"Listening to Japanese spoken words and when given their meaning, rate how I thought each word resembles its meaning.",1,23,DRY,0,1077,koragu,koragu_DRY
60ccf2e72ef0587d5cc4e2cd,English,German,"Listening to Japanese spoken words and when given their meaning, rate how I thought each word resembles its meaning.",1,24,SLY,0,2233,kosui,kosui_CUNNING
60ccf2e72ef0587d5cc4e2cd,English,German,"Listening to Japanese spoken words and when given their meaning, rate how I thought each word resembles its meaning.",1,25,PRICKLING,0,1116,hasyikai,hasyikai_ITCHING
60ccf2e72ef0587d5cc4e2cd,English,German,"Listening to Japanese spoken words and when given their meaning, rate how I thought each word resembles its meaning.",1,26,COLD,0,1353,sabui,sabui_COLD (WEATHER)
60ccf2e72ef0587d5cc4e2cd,English,German,"Listening to Japanese spoken words and when given their meaning, rate how I thought each word resembles its meaning.",1,27,SAD,5,2291,tsurai,tsurai_SAD
60ccf2e72ef0587d5cc4e2cd,English,German,"Listening to Japanese spoken words and when given their meaning, rate how I thought each word resembles its meaning.",1,28,EXHAUSTED,0,1896,erai,erai_EXHAUSTED
60ccf2e72ef0587d5cc4e2cd,English,German,"Listening to Japanese spoken words and when given their meaning, rate how I thought each word resembles its meaning.",1,29,HARD,0,1317,kowai,kowai_HARD
60ccf2e72ef0587d5cc4e2cd,English,German,"Listening to Japanese spoken words and when given their meaning, rate how I thought each word resembles its meaning.",1,30,GRITTY,0,881,deQkai,deQkai_ROUGH
60ccf2e72ef0587d5cc4e2cd,English,German,"Listening to Japanese spoken words and when given their meaning, rate how I thought each word resembles its meaning.",1,31,SLUGGISH,0,1177,koe,koe_SLUGGISH
60ccf2e72ef0587d5cc4e2cd,English,German,"Listening to Japanese spoken words and when given their meaning, rate how I thought each word resembles its meaning.",1,32,HARD,0,885,katai,katai_HARD
60ccf2e72ef0587d5cc4e2cd,English,German,"Listening to Japanese spoken words and when given their meaning, rate how I thought each word resembles its meaning.",1,33,HOPPING,0,1792,pyoNpyoN,pyoNpyoN_HOPPING
60ccf2e72ef0587d5cc4e2cd,English,German,"Listening to Japanese spoken words and when given their meaning, rate how I thought each word resembles its meaning.",1,34,WHISPERING,0,1669,hisohiso,hisohiso_WHISPERING
5f4fe606bd24e711122445e3,English,none,a language task where I had to say whether the japanese wor had any resemblance to its english word,1,1,WOBBLING,5,57161,yoroyoro,yoroyoro_WOBBLING
5f4fe606bd24e711122445e3,English,none,a language task where I had to say whether the japanese wor had any resemblance to its english word,1,2,FLUFFY,0,2805,fuwafuwa,fuwafuwa_SOFT
5f4fe606bd24e711122445e3,English,none,a language task where I had to say whether the japanese wor had any resemblance to its english word,1,3,WATERY (EYES),0,2729,syobosyobo,syobosyobo_WATERY (EYES)
5f4fe606bd24e711122445e3,English,none,a language task where I had to say whether the japanese wor had any resemblance to its english word,1,4,ENERGETIC,3,6883,syaNsyaN,syaNsyaN_LIVELY
5f4fe606bd24e711122445e3,English,none,a language task where I had to say whether the japanese wor had any resemblance to its english word,1,5,TIRED,4,3359,kaQtarii,kaQtarii_EXHAUSTED
5f4fe606bd24e711122445e3,English,none,a language task where I had to say whether the japanese wor had any resemblance to its english word,1,6,PULSATING,2,5789,hirihiri,hirihiri_THROBBING
5f4fe606bd24e711122445e3,English,none,a language task where I had to say whether the japanese wor had any resemblance to its english word,1,7,TIDY,5,8355,kiree,kiree_CLEAN
5f4fe606bd24e711122445e3,English,none,a language task where I had to say whether the japanese wor had any resemblance to its english word,1,8,STUFFED (FROM EATING TOO MUCH),0,6933,kutyii,kutyii_STUFFED (FULL OF FOOD)
5f4fe606bd24e711122445e3,English,none,a language task where I had to say whether the japanese wor had any resemblance to its english word,1,9,SUNNY,0,7229,akarui,akarui_BRIGHT
5f4fe606bd24e711122445e3,English,none,a language task where I had to say whether the japanese wor had any resemblance to its english word,1,10,TREMBLING,0,1776,uzyauzya,uzyauzya_SHAKING
5f4fe606bd24e711122445e3,English,none,a language task where I had to say whether the japanese wor had any resemblance to its english word,1,11,IMPATIENT,0,1597,yakiyaki,yakiyaki_ANNOYED/IMPATIENT
5f4fe606bd24e711122445e3,English,none,a language task where I had to say whether the japanese wor had any resemblance to its english word,1,12,TICKLING,0,5316,motyokoi,motyokoi_TICKLING
5f4fe606bd24e711122445e3,English,none,a language task where I had to say whether the japanese wor had any resemblance to its english word,1,13,GOOEY,1,6918,nebaneba,nebaneba_STICKY
5f4fe606bd24e711122445e3,English,none,a language task where I had to say whether the japanese wor had any resemblance to its english word,1,14,RINGING (E.G. A RINGING SOUND IN YOUR EARS),0,2377,tsuuN,tsuuN_RINGING
5f4fe606bd24e711122445e3,English,none,a language task where I had to say whether the japanese wor had any resemblance to its english word,1,15,PINCHING,0,1506,kyuukutsuka,kyuukutsuka_TIGHT
5f4fe606bd24e711122445e3,English,none,a language task where I had to say whether the japanese wor had any resemblance to its english word,1,16,FRESH,0,1364,suzusyii,suzusyii_COOL
5f4fe606bd24e711122445e3,English,none,a language task where I had to say whether the japanese wor had any resemblance to its english word,1,17,SHIVERS (DOWN YOUR SPINE),6,4146,zawazawa,zawazawa_SHIVERING
5f4fe606bd24e711122445e3,English,none,a language task where I had to say whether the japanese wor had any resemblance to its english word,1,18,SOGGY,2,3284,syiQpori,syiQpori_WET
5f4fe606bd24e711122445e3,English,none,a language task where I had to say whether the japanese wor had any resemblance to its english word,1,19,SLIMY,0,2115,nurunuru,nurunuru_SLIMY
5f4fe606bd24e711122445e3,English,none,a language task where I had to say whether the japanese wor had any resemblance to its english word,1,20,GOOEY,1,5617,zuruNzuruN,zuruNzuruN_SLIMY
5f4fe606bd24e711122445e3,English,none,a language task where I had to say whether the japanese wor had any resemblance to its english word,1,21,GRITTY,0,2416,zarazara,zarazara_ROUGH
5f4fe606bd24e711122445e3,English,none,a language task where I had to say whether the japanese wor had any resemblance to its english word,1,22,BIG,4,3957,igai,igai_BIG
5f4fe606bd24e711122445e3,English,none,a language task where I had to say whether the japanese wor had any resemblance to its english word,1,23,DRY,0,2139,koragu,koragu_DRY
5f4fe606bd24e711122445e3,English,none,a language task where I had to say whether the japanese wor had any resemblance to its english word,1,24,SLY,0,2556,kosui,kosui_CUNNING
5f4fe606bd24e711122445e3,English,none,a language task where I had to say whether the japanese wor had any resemblance to its english word,1,25,PRICKLING,0,3815,hasyikai,hasyikai_ITCHING
5f4fe606bd24e711122445e3,English,none,a language task where I had to say whether the japanese wor had any resemblance to its english word,1,26,CHILLY,1,6232,sabui,sabui_COLD (WEATHER)
5f4fe606bd24e711122445e3,English,none,a language task where I had to say whether the japanese wor had any resemblance to its english word,1,27,GLUM,0,1896,tsurai,tsurai_SAD
5f4fe606bd24e711122445e3,English,none,a language task where I had to say whether the japanese wor had any resemblance to its english word,1,28,EXHAUSTED,0,1948,erai,erai_EXHAUSTED
5f4fe606bd24e711122445e3,English,none,a language task where I had to say whether the japanese wor had any resemblance to its english word,1,29,HARD,1,2356,kowai,kowai_HARD
5f4fe606bd24e711122445e3,English,none,a language task where I had to say whether the japanese wor had any resemblance to its english word,1,30,COARSE,0,2099,deQkai,deQkai_ROUGH
5f4fe606bd24e711122445e3,English,none,a language task where I had to say whether the japanese wor had any resemblance to its english word,1,31,SLUGGISH,0,10120,koe,koe_SLUGGISH
5f4fe606bd24e711122445e3,English,none,a language task where I had to say whether the japanese wor had any resemblance to its english word,1,32,HARD,0,1460,katai,katai_HARD
5f4fe606bd24e711122445e3,English,none,a language task where I had to say whether the japanese wor had any resemblance to its english word,1,33,HOPPING,3,4682,pyoNpyoN,pyoNpyoN_HOPPING
5f4fe606bd24e711122445e3,English,none,a language task where I had to say whether the japanese wor had any resemblance to its english word,1,34,WHISPERING,2,7223,hisohiso,hisohiso_WHISPERING
60ce3f28b9139b735ed9b1a1,English,None,Seeing if Japanese words sounded like the word they represented.,1,1,WOBBLING,5,3110,yoroyoro,yoroyoro_WOBBLING
60ce3f28b9139b735ed9b1a1,English,None,Seeing if Japanese words sounded like the word they represented.,1,2,FLUFFY,2,1882,fuwafuwa,fuwafuwa_SOFT
60ce3f28b9139b735ed9b1a1,English,None,Seeing if Japanese words sounded like the word they represented.,1,3,BLEARY (EYES),2,2204,syobosyobo,syobosyobo_WATERY (EYES)
60ce3f28b9139b735ed9b1a1,English,None,Seeing if Japanese words sounded like the word they represented.,1,4,LIVELY,4,1131,syaNsyaN,syaNsyaN_LIVELY
60ce3f28b9139b735ed9b1a1,English,None,Seeing if Japanese words sounded like the word they represented.,1,5,TIRED,1,1104,kaQtarii,kaQtarii_EXHAUSTED
60ce3f28b9139b735ed9b1a1,English,None,Seeing if Japanese words sounded like the word they represented.,1,6,THROBBING,3,3969,hirihiri,hirihiri_THROBBING
60ce3f28b9139b735ed9b1a1,English,None,Seeing if Japanese words sounded like the word they represented.,1,7,TIDY,5,2808,kiree,kiree_CLEAN
60ce3f28b9139b735ed9b1a1,English,None,Seeing if Japanese words sounded like the word they represented.,1,8,STUFFED (FROM EATING TOO MUCH),1,3238,kutyii,kutyii_STUFFED (FULL OF FOOD)
60ce3f28b9139b735ed9b1a1,English,None,Seeing if Japanese words sounded like the word they represented.,1,9,BRIGHT,1,4007,akarui,akarui_BRIGHT
60ce3f28b9139b735ed9b1a1,English,None,Seeing if Japanese words sounded like the word they represented.,1,10,TREMBLING,2,1649,uzyauzya,uzyauzya_SHAKING
60ce3f28b9139b735ed9b1a1,English,None,Seeing if Japanese words sounded like the word they represented.,1,11,IMPATIENT,1,1890,yakiyaki,yakiyaki_ANNOYED/IMPATIENT
60ce3f28b9139b735ed9b1a1,English,None,Seeing if Japanese words sounded like the word they represented.,1,12,TICKLING,1,3867,motyokoi,motyokoi_TICKLING
60ce3f28b9139b735ed9b1a1,English,None,Seeing if Japanese words sounded like the word they represented.,1,13,STICKY,3,4173,nebaneba,nebaneba_STICKY
60ce3f28b9139b735ed9b1a1,English,None,Seeing if Japanese words sounded like the word they represented.,1,14,RINGING (E.G. A RINGING SOUND IN YOUR EARS),1,2330,tsuuN,tsuuN_RINGING
60ce3f28b9139b735ed9b1a1,English,None,Seeing if Japanese words sounded like the word they represented.,1,15,TIGHT,1,4809,kyuukutsuka,kyuukutsuka_TIGHT
60ce3f28b9139b735ed9b1a1,English,None,Seeing if Japanese words sounded like the word they represented.,1,16,COOL,1,5546,suzusyii,suzusyii_COOL
60ce3f28b9139b735ed9b1a1,English,None,Seeing if Japanese words sounded like the word they represented.,1,17,SHIVERS (DOWN YOUR SPINE),4,3255,zawazawa,zawazawa_SHIVERING
60ce3f28b9139b735ed9b1a1,English,None,Seeing if Japanese words sounded like the word they represented.,1,18,WET,1,1343,syiQpori,syiQpori_WET
60ce3f28b9139b735ed9b1a1,English,None,Seeing if Japanese words sounded like the word they represented.,1,19,SLIPPERY,2,4089,nurunuru,nurunuru_SLIMY
60ce3f28b9139b735ed9b1a1,English,None,Seeing if Japanese words sounded like the word they represented.,1,20,SLIMY,2,1637,zuruNzuruN,zuruNzuruN_SLIMY
60ce3f28b9139b735ed9b1a1,English,None,Seeing if Japanese words sounded like the word they represented.,1,21,ROUGH,3,1630,zarazara,zarazara_ROUGH
60ce3f28b9139b735ed9b1a1,English,None,Seeing if Japanese words sounded like the word they represented.,1,22,MASSIVE,1,3496,igai,igai_BIG
60ce3f28b9139b735ed9b1a1,English,None,Seeing if Japanese words sounded like the word they represented.,1,23,DRY,1,1224,koragu,koragu_DRY
60ce3f28b9139b735ed9b1a1,English,None,Seeing if Japanese words sounded like the word they represented.,1,24,SLY,1,3527,kosui,kosui_CUNNING
60ce3f28b9139b735ed9b1a1,English,None,Seeing if Japanese words sounded like the word they represented.,1,25,PRICKLING,4,1548,hasyikai,hasyikai_ITCHING
60ce3f28b9139b735ed9b1a1,English,None,Seeing if Japanese words sounded like the word they represented.,1,26,CHILLY,2,3476,sabui,sabui_COLD (WEATHER)
60ce3f28b9139b735ed9b1a1,English,None,Seeing if Japanese words sounded like the word they represented.,1,27,SAD,2,3666,tsurai,tsurai_SAD
60ce3f28b9139b735ed9b1a1,English,None,Seeing if Japanese words sounded like the word they represented.,1,28,TIRED,4,2004,erai,erai_EXHAUSTED
60ce3f28b9139b735ed9b1a1,English,None,Seeing if Japanese words sounded like the word they represented.,1,29,HARD,3,1724,kowai,kowai_HARD
60ce3f28b9139b735ed9b1a1,English,None,Seeing if Japanese words sounded like the word they represented.,1,30,COARSE,1,2998,deQkai,deQkai_ROUGH
60ce3f28b9139b735ed9b1a1,English,None,Seeing if Japanese words sounded like the word they represented.,1,31,LETHARGIC,1,1613,koe,koe_SLUGGISH
60ce3f28b9139b735ed9b1a1,English,None,Seeing if Japanese words sounded like the word they represented.,1,32,HARD,1,1204,katai,katai_HARD
60ce3f28b9139b735ed9b1a1,English,None,Seeing if Japanese words sounded like the word they represented.,1,33,BOUNCING,5,1006,pyoNpyoN,pyoNpyoN_HOPPING
60ce3f28b9139b735ed9b1a1,English,None,Seeing if Japanese words sounded like the word they represented.,1,34,WHISPERING,2,4445,hisohiso,hisohiso_WHISPERING
60cce9e5db3f76eabb186870,English,NA,The resemblance of the words to their meanings/action,1,1,WOBBLING,5,2855,yoroyoro,yoroyoro_WOBBLING
60cce9e5db3f76eabb186870,English,NA,The resemblance of the words to their meanings/action,1,2,FLUFFY,4,1828,fuwafuwa,fuwafuwa_SOFT
60cce9e5db3f76eabb186870,English,NA,The resemblance of the words to their meanings/action,1,3,WATERY (EYES),0,597,syobosyobo,syobosyobo_WATERY (EYES)
60cce9e5db3f76eabb186870,English,NA,The resemblance of the words to their meanings/action,1,4,ENERGETIC,3,1212,syaNsyaN,syaNsyaN_LIVELY
60cce9e5db3f76eabb186870,English,NA,The resemblance of the words to their meanings/action,1,5,TIRED,3,716,kaQtarii,kaQtarii_EXHAUSTED
60cce9e5db3f76eabb186870,English,NA,The resemblance of the words to their meanings/action,1,6,PULSATING,4,831,hirihiri,hirihiri_THROBBING
60cce9e5db3f76eabb186870,English,NA,The resemblance of the words to their meanings/action,1,7,CLEAN,0,601,kiree,kiree_CLEAN
60cce9e5db3f76eabb186870,English,NA,The resemblance of the words to their meanings/action,1,8,STUFFED (FROM EATING TOO MUCH),5,1043,kutyii,kutyii_STUFFED (FULL OF FOOD)
60cce9e5db3f76eabb186870,English,NA,The resemblance of the words to their meanings/action,1,9,BRIGHT,0,568,akarui,akarui_BRIGHT
60cce9e5db3f76eabb186870,English,NA,The resemblance of the words to their meanings/action,1,10,SHAKING,4,976,uzyauzya,uzyauzya_SHAKING
60cce9e5db3f76eabb186870,English,NA,The resemblance of the words to their meanings/action,1,11,ANNOYED,3,686,yakiyaki,yakiyaki_ANNOYED/IMPATIENT
60cce9e5db3f76eabb186870,English,NA,The resemblance of the words to their meanings/action,1,12,TICKLING,1,701,motyokoi,motyokoi_TICKLING
60cce9e5db3f76eabb186870,English,NA,The resemblance of the words to their meanings/action,1,13,STICKY,0,468,nebaneba,nebaneba_STICKY
60cce9e5db3f76eabb186870,English,NA,The resemblance of the words to their meanings/action,1,14,RINGING (E.G. A RINGING SOUND IN YOUR EARS),5,968,tsuuN,tsuuN_RINGING
60cce9e5db3f76eabb186870,English,NA,The resemblance of the words to their meanings/action,1,15,TIGHT,2,949,kyuukutsuka,kyuukutsuka_TIGHT
60cce9e5db3f76eabb186870,English,NA,The resemblance of the words to their meanings/action,1,16,FRESH,0,596,suzusyii,suzusyii_COOL
60cce9e5db3f76eabb186870,English,NA,The resemblance of the words to their meanings/action,1,17,(SPINE) TINGLING,3,1022,zawazawa,zawazawa_SHIVERING
60cce9e5db3f76eabb186870,English,NA,The resemblance of the words to their meanings/action,1,18,DAMP,0,659,syiQpori,syiQpori_WET
60cce9e5db3f76eabb186870,English,NA,The resemblance of the words to their meanings/action,1,19,SLIMY,2,993,nurunuru,nurunuru_SLIMY
60cce9e5db3f76eabb186870,English,NA,The resemblance of the words to their meanings/action,1,20,GOOEY,4,525,zuruNzuruN,zuruNzuruN_SLIMY
60cce9e5db3f76eabb186870,English,NA,The resemblance of the words to their meanings/action,1,21,ROUGH,2,812,zarazara,zarazara_ROUGH
60cce9e5db3f76eabb186870,English,NA,The resemblance of the words to their meanings/action,1,22,BIG,0,783,igai,igai_BIG
60cce9e5db3f76eabb186870,English,NA,The resemblance of the words to their meanings/action,1,23,DRY,0,587,koragu,koragu_DRY
60cce9e5db3f76eabb186870,English,NA,The resemblance of the words to their meanings/action,1,24,SNEAKY,5,628,kosui,kosui_CUNNING
60cce9e5db3f76eabb186870,English,NA,The resemblance of the words to their meanings/action,1,25,ITCHING,2,736,hasyikai,hasyikai_ITCHING
60cce9e5db3f76eabb186870,English,NA,The resemblance of the words to their meanings/action,1,26,CHILLY,1,732,sabui,sabui_COLD (WEATHER)
60cce9e5db3f76eabb186870,English,NA,The resemblance of the words to their meanings/action,1,27,SAD,3,693,tsurai,tsurai_SAD
60cce9e5db3f76eabb186870,English,NA,The resemblance of the words to their meanings/action,1,28,EXHAUSTED,1,2224,erai,erai_EXHAUSTED
60cce9e5db3f76eabb186870,English,NA,The resemblance of the words to their meanings/action,1,29,HARD,1,793,kowai,kowai_HARD
60cce9e5db3f76eabb186870,English,NA,The resemblance of the words to their meanings/action,1,30,GRITTY,2,834,deQkai,deQkai_ROUGH
60cce9e5db3f76eabb186870,English,NA,The resemblance of the words to their meanings/action,1,31,LETHARGIC,0,670,koe,koe_SLUGGISH
60cce9e5db3f76eabb186870,English,NA,The resemblance of the words to their meanings/action,1,32,HARD,1,1273,katai,katai_HARD
60cce9e5db3f76eabb186870,English,NA,The resemblance of the words to their meanings/action,1,33,HOPPING,6,501,pyoNpyoN,pyoNpyoN_HOPPING
60cce9e5db3f76eabb186870,English,NA,The resemblance of the words to their meanings/action,1,34,WHISPERING,5,708,hisohiso,hisohiso_WHISPERING
60cec69bdce9543e082c8588,English,None,Evaluating how much certain Japanese words sound like what they are describing,1,1,WOBBLING,5,7493,yoroyoro,yoroyoro_WOBBLING
60cec69bdce9543e082c8588,English,None,Evaluating how much certain Japanese words sound like what they are describing,1,2,FLUFFY,5,5385,fuwafuwa,fuwafuwa_SOFT
60cec69bdce9543e082c8588,English,None,Evaluating how much certain Japanese words sound like what they are describing,1,3,WATERY (EYES),0,2688,syobosyobo,syobosyobo_WATERY (EYES)
60cec69bdce9543e082c8588,English,None,Evaluating how much certain Japanese words sound like what they are describing,1,4,LIVELY,6,2647,syaNsyaN,syaNsyaN_LIVELY
60cec69bdce9543e082c8588,English,None,Evaluating how much certain Japanese words sound like what they are describing,1,5,EXHAUSTED,5,1936,kaQtarii,kaQtarii_EXHAUSTED
60cec69bdce9543e082c8588,English,None,Evaluating how much certain Japanese words sound like what they are describing,1,6,THROBBING,4,4024,hirihiri,hirihiri_THROBBING
60cec69bdce9543e082c8588,English,None,Evaluating how much certain Japanese words sound like what they are describing,1,7,TIDY,3,2504,kiree,kiree_CLEAN
60cec69bdce9543e082c8588,English,None,Evaluating how much certain Japanese words sound like what they are describing,1,8,FULL (FROM EATING),1,4456,kutyii,kutyii_STUFFED (FULL OF FOOD)
60cec69bdce9543e082c8588,English,None,Evaluating how much certain Japanese words sound like what they are describing,1,9,SUNNY,1,2203,akarui,akarui_BRIGHT
60cec69bdce9543e082c8588,English,None,Evaluating how much certain Japanese words sound like what they are describing,1,10,TREMBLING,5,1231,uzyauzya,uzyauzya_SHAKING
60cec69bdce9543e082c8588,English,None,Evaluating how much certain Japanese words sound like what they are describing,1,11,IMPATIENT,6,2060,yakiyaki,yakiyaki_ANNOYED/IMPATIENT
60cec69bdce9543e082c8588,English,None,Evaluating how much certain Japanese words sound like what they are describing,1,12,TICKLING,1,8033,motyokoi,motyokoi_TICKLING
60cec69bdce9543e082c8588,English,None,Evaluating how much certain Japanese words sound like what they are describing,1,13,STICKY,2,1995,nebaneba,nebaneba_STICKY
60cec69bdce9543e082c8588,English,None,Evaluating how much certain Japanese words sound like what they are describing,1,14,RINGING (E.G. A RINGING SOUND IN YOUR EARS),6,2279,tsuuN,tsuuN_RINGING
60cec69bdce9543e082c8588,English,None,Evaluating how much certain Japanese words sound like what they are describing,1,15,PINCHING,5,6278,kyuukutsuka,kyuukutsuka_TIGHT
60cec69bdce9543e082c8588,English,None,Evaluating how much certain Japanese words sound like what they are describing,1,16,FRESH,4,1974,suzusyii,suzusyii_COOL
60cec69bdce9543e082c8588,English,None,Evaluating how much certain Japanese words sound like what they are describing,1,17,(SPINE) TINGLING,2,1574,zawazawa,zawazawa_SHIVERING
60cec69bdce9543e082c8588,English,None,Evaluating how much certain Japanese words sound like what they are describing,1,18,WET,1,2251,syiQpori,syiQpori_WET
60cec69bdce9543e082c8588,English,None,Evaluating how much certain Japanese words sound like what they are describing,1,19,SLICK,0,3890,nurunuru,nurunuru_SLIMY
60cec69bdce9543e082c8588,English,None,Evaluating how much certain Japanese words sound like what they are describing,1,20,GOOEY,3,4389,zuruNzuruN,zuruNzuruN_SLIMY
60cec69bdce9543e082c8588,English,None,Evaluating how much certain Japanese words sound like what they are describing,1,21,GRITTY,4,4949,zarazara,zarazara_ROUGH
60cec69bdce9543e082c8588,English,None,Evaluating how much certain Japanese words sound like what they are describing,1,22,MASSIVE,3,5903,igai,igai_BIG
60cec69bdce9543e082c8588,English,None,Evaluating how much certain Japanese words sound like what they are describing,1,23,PARCHED,3,4264,koragu,koragu_DRY
60cec69bdce9543e082c8588,English,None,Evaluating how much certain Japanese words sound like what they are describing,1,24,CUNNING,4,2914,kosui,kosui_CUNNING
60cec69bdce9543e082c8588,English,None,Evaluating how much certain Japanese words sound like what they are describing,1,25,ITCHING,4,13341,hasyikai,hasyikai_ITCHING
60cec69bdce9543e082c8588,English,None,Evaluating how much certain Japanese words sound like what they are describing,1,26,CHILLY,3,2600,sabui,sabui_COLD (WEATHER)
60cec69bdce9543e082c8588,English,None,Evaluating how much certain Japanese words sound like what they are describing,1,27,GLUM,4,3182,tsurai,tsurai_SAD
60cec69bdce9543e082c8588,English,None,Evaluating how much certain Japanese words sound like what they are describing,1,28,WEARY,3,2552,erai,erai_EXHAUSTED
60cec69bdce9543e082c8588,English,None,Evaluating how much certain Japanese words sound like what they are describing,1,29,HARD,4,3977,kowai,kowai_HARD
60cec69bdce9543e082c8588,English,None,Evaluating how much certain Japanese words sound like what they are describing,1,30,COARSE,1,5837,deQkai,deQkai_ROUGH
60cec69bdce9543e082c8588,English,None,Evaluating how much certain Japanese words sound like what they are describing,1,31,SLUGGISH,0,10009,koe,koe_SLUGGISH
60cec69bdce9543e082c8588,English,None,Evaluating how much certain Japanese words sound like what they are describing,1,32,HARD,4,4173,katai,katai_HARD
60cec69bdce9543e082c8588,English,None,Evaluating how much certain Japanese words sound like what they are describing,1,33,HOPPING,6,1186,pyoNpyoN,pyoNpyoN_HOPPING
60cec69bdce9543e082c8588,English,None,Evaluating how much certain Japanese words sound like what they are describing,1,34,WHISPERING,5,2191,hisohiso,hisohiso_WHISPERING
5c88336991d8a80016a92d9e,English,NA,Rating how well Japanese spoken words resembled their meaning,1,1,WOBBLING,5,5627,yoroyoro,yoroyoro_WOBBLING
5c88336991d8a80016a92d9e,English,NA,Rating how well Japanese spoken words resembled their meaning,1,2,FLUFFY,5,4150,fuwafuwa,fuwafuwa_SOFT
5c88336991d8a80016a92d9e,English,NA,Rating how well Japanese spoken words resembled their meaning,1,3,BLEARY (EYES),3,666,syobosyobo,syobosyobo_WATERY (EYES)
5c88336991d8a80016a92d9e,English,NA,Rating how well Japanese spoken words resembled their meaning,1,4,ENERGETIC,2,737,syaNsyaN,syaNsyaN_LIVELY
5c88336991d8a80016a92d9e,English,NA,Rating how well Japanese spoken words resembled their meaning,1,5,EXHAUSTED,2,818,kaQtarii,kaQtarii_EXHAUSTED
5c88336991d8a80016a92d9e,English,NA,Rating how well Japanese spoken words resembled their meaning,1,6,THROBBING,5,1697,hirihiri,hirihiri_THROBBING
5c88336991d8a80016a92d9e,English,NA,Rating how well Japanese spoken words resembled their meaning,1,7,CLEAN,4,998,kiree,kiree_CLEAN
5c88336991d8a80016a92d9e,English,NA,Rating how well Japanese spoken words resembled their meaning,1,8,FULL (FROM EATING),3,749,kutyii,kutyii_STUFFED (FULL OF FOOD)
5c88336991d8a80016a92d9e,English,NA,Rating how well Japanese spoken words resembled their meaning,1,9,BRIGHT,2,1077,akarui,akarui_BRIGHT
5c88336991d8a80016a92d9e,English,NA,Rating how well Japanese spoken words resembled their meaning,1,10,SHAKING,4,3325,uzyauzya,uzyauzya_SHAKING
5c88336991d8a80016a92d9e,English,NA,Rating how well Japanese spoken words resembled their meaning,1,11,ANNOYED,3,2869,yakiyaki,yakiyaki_ANNOYED/IMPATIENT
5c88336991d8a80016a92d9e,English,NA,Rating how well Japanese spoken words resembled their meaning,1,12,TICKLING,3,6288,motyokoi,motyokoi_TICKLING
5c88336991d8a80016a92d9e,English,NA,Rating how well Japanese spoken words resembled their meaning,1,13,GOOEY,2,658,nebaneba,nebaneba_STICKY
5c88336991d8a80016a92d9e,English,NA,Rating how well Japanese spoken words resembled their meaning,1,14,RINGING (E.G. A RINGING SOUND IN YOUR EARS),5,782,tsuuN,tsuuN_RINGING
5c88336991d8a80016a92d9e,English,NA,Rating how well Japanese spoken words resembled their meaning,1,15,PINCHING,5,807,kyuukutsuka,kyuukutsuka_TIGHT
5c88336991d8a80016a92d9e,English,NA,Rating how well Japanese spoken words resembled their meaning,1,16,COOL,4,1041,suzusyii,suzusyii_COOL
5c88336991d8a80016a92d9e,English,NA,Rating how well Japanese spoken words resembled their meaning,1,17,(SPINE) TINGLING,2,6321,zawazawa,zawazawa_SHIVERING
5c88336991d8a80016a92d9e,English,NA,Rating how well Japanese spoken words resembled their meaning,1,18,SOGGY,2,699,syiQpori,syiQpori_WET
5c88336991d8a80016a92d9e,English,NA,Rating how well Japanese spoken words resembled their meaning,1,19,SLIMY,3,855,nurunuru,nurunuru_SLIMY
5c88336991d8a80016a92d9e,English,NA,Rating how well Japanese spoken words resembled their meaning,1,20,SLIMY,3,2691,zuruNzuruN,zuruNzuruN_SLIMY
5c88336991d8a80016a92d9e,English,NA,Rating how well Japanese spoken words resembled their meaning,1,21,COARSE,4,2527,zarazara,zarazara_ROUGH
5c88336991d8a80016a92d9e,English,NA,Rating how well Japanese spoken words resembled their meaning,1,22,BIG,2,937,igai,igai_BIG
5c88336991d8a80016a92d9e,English,NA,Rating how well Japanese spoken words resembled their meaning,1,23,PARCHED,4,830,koragu,koragu_DRY
5c88336991d8a80016a92d9e,English,NA,Rating how well Japanese spoken words resembled their meaning,1,24,SLY,2,676,kosui,kosui_CUNNING
5c88336991d8a80016a92d9e,English,NA,Rating how well Japanese spoken words resembled their meaning,1,25,PRICKLING,4,858,hasyikai,hasyikai_ITCHING
5c88336991d8a80016a92d9e,English,NA,Rating how well Japanese spoken words resembled their meaning,1,26,CHILLY,3,1412,sabui,sabui_COLD (WEATHER)
5c88336991d8a80016a92d9e,English,NA,Rating how well Japanese spoken words resembled their meaning,1,27,GLUM,3,894,tsurai,tsurai_SAD
5c88336991d8a80016a92d9e,English,NA,Rating how well Japanese spoken words resembled their meaning,1,28,TIRED,3,2184,erai,erai_EXHAUSTED
5c88336991d8a80016a92d9e,English,NA,Rating how well Japanese spoken words resembled their meaning,1,29,HARD,3,1642,kowai,kowai_HARD
5c88336991d8a80016a92d9e,English,NA,Rating how well Japanese spoken words resembled their meaning,1,30,COARSE,5,986,deQkai,deQkai_ROUGH
5c88336991d8a80016a92d9e,English,NA,Rating how well Japanese spoken words resembled their meaning,1,31,LETHARGIC,2,2385,koe,koe_SLUGGISH
5c88336991d8a80016a92d9e,English,NA,Rating how well Japanese spoken words resembled their meaning,1,32,HARD,4,2423,katai,katai_HARD
5c88336991d8a80016a92d9e,English,NA,Rating how well Japanese spoken words resembled their meaning,1,33,HOPPING,5,582,pyoNpyoN,pyoNpyoN_HOPPING
5c88336991d8a80016a92d9e,English,NA,Rating how well Japanese spoken words resembled their meaning,1,34,WHISPERING,5,691,hisohiso,hisohiso_WHISPERING
5fd7e54d7541e70e1e6a704b,english,none,rating the resemblance between japanese pronounced words and english words and their meanind,1,1,WOBBLING,0,5216,yoroyoro,yoroyoro_WOBBLING
5fd7e54d7541e70e1e6a704b,english,none,rating the resemblance between japanese pronounced words and english words and their meanind,1,2,FLUFFY,4,1175,fuwafuwa,fuwafuwa_SOFT
5fd7e54d7541e70e1e6a704b,english,none,rating the resemblance between japanese pronounced words and english words and their meanind,1,3,WATERY (EYES),0,2124,syobosyobo,syobosyobo_WATERY (EYES)
5fd7e54d7541e70e1e6a704b,english,none,rating the resemblance between japanese pronounced words and english words and their meanind,1,4,ENERGETIC,0,914,syaNsyaN,syaNsyaN_LIVELY
5fd7e54d7541e70e1e6a704b,english,none,rating the resemblance between japanese pronounced words and english words and their meanind,1,5,TIRED,1,970,kaQtarii,kaQtarii_EXHAUSTED
5fd7e54d7541e70e1e6a704b,english,none,rating the resemblance between japanese pronounced words and english words and their meanind,1,6,THROBBING,2,3080,hirihiri,hirihiri_THROBBING
5fd7e54d7541e70e1e6a704b,english,none,rating the resemblance between japanese pronounced words and english words and their meanind,1,7,TIDY,4,1026,kiree,kiree_CLEAN
5fd7e54d7541e70e1e6a704b,english,none,rating the resemblance between japanese pronounced words and english words and their meanind,1,8,STUFFED (FROM EATING TOO MUCH),0,1279,kutyii,kutyii_STUFFED (FULL OF FOOD)
5fd7e54d7541e70e1e6a704b,english,none,rating the resemblance between japanese pronounced words and english words and their meanind,1,9,BRIGHT,0,1003,akarui,akarui_BRIGHT
5fd7e54d7541e70e1e6a704b,english,none,rating the resemblance between japanese pronounced words and english words and their meanind,1,10,TREMBLING,0,7563,uzyauzya,uzyauzya_SHAKING
5fd7e54d7541e70e1e6a704b,english,none,rating the resemblance between japanese pronounced words and english words and their meanind,1,11,ANNOYED,0,836,yakiyaki,yakiyaki_ANNOYED/IMPATIENT
5fd7e54d7541e70e1e6a704b,english,none,rating the resemblance between japanese pronounced words and english words and their meanind,1,12,TICKLING,0,927,motyokoi,motyokoi_TICKLING
5fd7e54d7541e70e1e6a704b,english,none,rating the resemblance between japanese pronounced words and english words and their meanind,1,13,GOOEY,0,896,nebaneba,nebaneba_STICKY
5fd7e54d7541e70e1e6a704b,english,none,rating the resemblance between japanese pronounced words and english words and their meanind,1,14,RINGING (E.G. A RINGING SOUND IN YOUR EARS),0,4267,tsuuN,tsuuN_RINGING
5fd7e54d7541e70e1e6a704b,english,none,rating the resemblance between japanese pronounced words and english words and their meanind,1,15,TIGHT,0,862,kyuukutsuka,kyuukutsuka_TIGHT
5fd7e54d7541e70e1e6a704b,english,none,rating the resemblance between japanese pronounced words and english words and their meanind,1,16,COOL,0,853,suzusyii,suzusyii_COOL
5fd7e54d7541e70e1e6a704b,english,none,rating the resemblance between japanese pronounced words and english words and their meanind,1,17,(SPINE) TINGLING,0,2714,zawazawa,zawazawa_SHIVERING
5fd7e54d7541e70e1e6a704b,english,none,rating the resemblance between japanese pronounced words and english words and their meanind,1,18,SOGGY,2,1389,syiQpori,syiQpori_WET
5fd7e54d7541e70e1e6a704b,english,none,rating the resemblance between japanese pronounced words and english words and their meanind,1,19,SLICK,0,962,nurunuru,nurunuru_SLIMY
5fd7e54d7541e70e1e6a704b,english,none,rating the resemblance between japanese pronounced words and english words and their meanind,1,20,SLIMY,0,906,zuruNzuruN,zuruNzuruN_SLIMY
5fd7e54d7541e70e1e6a704b,english,none,rating the resemblance between japanese pronounced words and english words and their meanind,1,21,COARSE,0,796,zarazara,zarazara_ROUGH
5fd7e54d7541e70e1e6a704b,english,none,rating the resemblance between japanese pronounced words and english words and their meanind,1,22,HUGE,1,1779,igai,igai_BIG
5fd7e54d7541e70e1e6a704b,english,none,rating the resemblance between japanese pronounced words and english words and their meanind,1,23,PARCHED,0,1219,koragu,koragu_DRY
5fd7e54d7541e70e1e6a704b,english,none,rating the resemblance between japanese pronounced words and english words and their meanind,1,24,SNEAKY,0,11888,kosui,kosui_CUNNING
5fd7e54d7541e70e1e6a704b,english,none,rating the resemblance between japanese pronounced words and english words and their meanind,1,25,ITCHING,2,987,hasyikai,hasyikai_ITCHING
5fd7e54d7541e70e1e6a704b,english,none,rating the resemblance between japanese pronounced words and english words and their meanind,1,26,COLD,0,814,sabui,sabui_COLD (WEATHER)
5fd7e54d7541e70e1e6a704b,english,none,rating the resemblance between japanese pronounced words and english words and their meanind,1,27,GLUM,1,1370,tsurai,tsurai_SAD
5fd7e54d7541e70e1e6a704b,english,none,rating the resemblance between japanese pronounced words and english words and their meanind,1,28,WEARY,3,1455,erai,erai_EXHAUSTED
5fd7e54d7541e70e1e6a704b,english,none,rating the resemblance between japanese pronounced words and english words and their meanind,1,29,HARD,2,1089,kowai,kowai_HARD
5fd7e54d7541e70e1e6a704b,english,none,rating the resemblance between japanese pronounced words and english words and their meanind,1,30,COARSE,0,1179,deQkai,deQkai_ROUGH
5fd7e54d7541e70e1e6a704b,english,none,rating the resemblance between japanese pronounced words and english words and their meanind,1,31,LETHARGIC,0,860,koe,koe_SLUGGISH
5fd7e54d7541e70e1e6a704b,english,none,rating the resemblance between japanese pronounced words and english words and their meanind,1,32,HARD,0,1516,katai,katai_HARD
5fd7e54d7541e70e1e6a704b,english,none,rating the resemblance between japanese pronounced words and english words and their meanind,1,33,BOUNCING,5,1220,pyoNpyoN,pyoNpyoN_HOPPING
5fd7e54d7541e70e1e6a704b,english,none,rating the resemblance between japanese pronounced words and english words and their meanind,1,34,WHISPERING,1,1210,hisohiso,hisohiso_WHISPERING
5d27219562a67d0001d18498,English,Basic Spanish,How close Japanese words sound to their English words,1,1,WOBBLING,3,7286,yoroyoro,yoroyoro_WOBBLING
5d27219562a67d0001d18498,English,Basic Spanish,How close Japanese words sound to their English words,1,2,FLUFFY,5,1720,fuwafuwa,fuwafuwa_SOFT
5d27219562a67d0001d18498,English,Basic Spanish,How close Japanese words sound to their English words,1,3,BLEARY (EYES),2,1661,syobosyobo,syobosyobo_WATERY (EYES)
5d27219562a67d0001d18498,English,Basic Spanish,How close Japanese words sound to their English words,1,4,LIVELY,4,1966,syaNsyaN,syaNsyaN_LIVELY
5d27219562a67d0001d18498,English,Basic Spanish,How close Japanese words sound to their English words,1,5,EXHAUSTED,0,1253,kaQtarii,kaQtarii_EXHAUSTED
5d27219562a67d0001d18498,English,Basic Spanish,How close Japanese words sound to their English words,1,6,PULSATING,4,2681,hirihiri,hirihiri_THROBBING
5d27219562a67d0001d18498,English,Basic Spanish,How close Japanese words sound to their English words,1,7,TIDY,4,3802,kiree,kiree_CLEAN
5d27219562a67d0001d18498,English,Basic Spanish,How close Japanese words sound to their English words,1,8,STUFFED (FROM EATING TOO MUCH),0,1417,kutyii,kutyii_STUFFED (FULL OF FOOD)
5d27219562a67d0001d18498,English,Basic Spanish,How close Japanese words sound to their English words,1,9,SUNNY,0,1108,akarui,akarui_BRIGHT
5d27219562a67d0001d18498,English,Basic Spanish,How close Japanese words sound to their English words,1,10,SHAKING,5,3901,uzyauzya,uzyauzya_SHAKING
5d27219562a67d0001d18498,English,Basic Spanish,How close Japanese words sound to their English words,1,11,IMPATIENT,4,2704,yakiyaki,yakiyaki_ANNOYED/IMPATIENT
5d27219562a67d0001d18498,English,Basic Spanish,How close Japanese words sound to their English words,1,12,TICKLING,0,1117,motyokoi,motyokoi_TICKLING
5d27219562a67d0001d18498,English,Basic Spanish,How close Japanese words sound to their English words,1,13,STICKY,1,1669,nebaneba,nebaneba_STICKY
5d27219562a67d0001d18498,English,Basic Spanish,How close Japanese words sound to their English words,1,14,RINGING (E.G. A RINGING SOUND IN YOUR EARS),5,1413,tsuuN,tsuuN_RINGING
5d27219562a67d0001d18498,English,Basic Spanish,How close Japanese words sound to their English words,1,15,PINCHING,0,4740,kyuukutsuka,kyuukutsuka_TIGHT
5d27219562a67d0001d18498,English,Basic Spanish,How close Japanese words sound to their English words,1,16,FRESH,3,3337,suzusyii,suzusyii_COOL
5d27219562a67d0001d18498,English,Basic Spanish,How close Japanese words sound to their English words,1,17,(SPINE) TINGLING,2,2962,zawazawa,zawazawa_SHIVERING
5d27219562a67d0001d18498,English,Basic Spanish,How close Japanese words sound to their English words,1,18,WET,0,1339,syiQpori,syiQpori_WET
5d27219562a67d0001d18498,English,Basic Spanish,How close Japanese words sound to their English words,1,19,SLICK,0,2818,nurunuru,nurunuru_SLIMY
5d27219562a67d0001d18498,English,Basic Spanish,How close Japanese words sound to their English words,1,20,SLIMY,3,1098,zuruNzuruN,zuruNzuruN_SLIMY
5d27219562a67d0001d18498,English,Basic Spanish,How close Japanese words sound to their English words,1,21,ROUGH,4,2988,zarazara,zarazara_ROUGH
5d27219562a67d0001d18498,English,Basic Spanish,How close Japanese words sound to their English words,1,22,MASSIVE,1,1187,igai,igai_BIG
5d27219562a67d0001d18498,English,Basic Spanish,How close Japanese words sound to their English words,1,23,DRY,0,1197,koragu,koragu_DRY
5d27219562a67d0001d18498,English,Basic Spanish,How close Japanese words sound to their English words,1,24,SLY,6,2334,kosui,kosui_CUNNING
5d27219562a67d0001d18498,English,Basic Spanish,How close Japanese words sound to their English words,1,25,ITCHING,0,1250,hasyikai,hasyikai_ITCHING
5d27219562a67d0001d18498,English,Basic Spanish,How close Japanese words sound to their English words,1,26,COLD,2,3459,sabui,sabui_COLD (WEATHER)
5d27219562a67d0001d18498,English,Basic Spanish,How close Japanese words sound to their English words,1,27,SAD,0,3257,tsurai,tsurai_SAD
5d27219562a67d0001d18498,English,Basic Spanish,How close Japanese words sound to their English words,1,28,TIRED,5,2142,erai,erai_EXHAUSTED
5d27219562a67d0001d18498,English,Basic Spanish,How close Japanese words sound to their English words,1,29,HARD,4,3443,kowai,kowai_HARD
5d27219562a67d0001d18498,English,Basic Spanish,How close Japanese words sound to their English words,1,30,COARSE,2,1474,deQkai,deQkai_ROUGH
5d27219562a67d0001d18498,English,Basic Spanish,How close Japanese words sound to their English words,1,31,SLUGGISH,0,1295,koe,koe_SLUGGISH
5d27219562a67d0001d18498,English,Basic Spanish,How close Japanese words sound to their English words,1,32,HARD,0,2215,katai,katai_HARD
5d27219562a67d0001d18498,English,Basic Spanish,How close Japanese words sound to their English words,1,33,BOUNCING,6,2154,pyoNpyoN,pyoNpyoN_HOPPING
5d27219562a67d0001d18498,English,Basic Spanish,How close Japanese words sound to their English words,1,34,WHISPERING,4,1292,hisohiso,hisohiso_WHISPERING
60cc47e2511368cdad732853,english,none,listening to sounds and rating how similar,1,1,WOBBLING,0,2589,yoroyoro,yoroyoro_WOBBLING
60cc47e2511368cdad732853,english,none,listening to sounds and rating how similar,1,2,FLUFFY,3,843,fuwafuwa,fuwafuwa_SOFT
60cc47e2511368cdad732853,english,none,listening to sounds and rating how similar,1,3,WATERY (EYES),1,1107,syobosyobo,syobosyobo_WATERY (EYES)
60cc47e2511368cdad732853,english,none,listening to sounds and rating how similar,1,4,ENERGETIC,3,731,syaNsyaN,syaNsyaN_LIVELY
60cc47e2511368cdad732853,english,none,listening to sounds and rating how similar,1,5,WEARY,1,1267,kaQtarii,kaQtarii_EXHAUSTED
60cc47e2511368cdad732853,english,none,listening to sounds and rating how similar,1,6,THROBBING,3,1196,hirihiri,hirihiri_THROBBING
60cc47e2511368cdad732853,english,none,listening to sounds and rating how similar,1,7,CLEAN,1,1757,kiree,kiree_CLEAN
60cc47e2511368cdad732853,english,none,listening to sounds and rating how similar,1,8,STUFFED (FROM EATING TOO MUCH),1,1811,kutyii,kutyii_STUFFED (FULL OF FOOD)
60cc47e2511368cdad732853,english,none,listening to sounds and rating how similar,1,9,SUNNY,3,748,akarui,akarui_BRIGHT
60cc47e2511368cdad732853,english,none,listening to sounds and rating how similar,1,10,SHAKING,3,931,uzyauzya,uzyauzya_SHAKING
60cc47e2511368cdad732853,english,none,listening to sounds and rating how similar,1,11,ANNOYED,4,1102,yakiyaki,yakiyaki_ANNOYED/IMPATIENT
60cc47e2511368cdad732853,english,none,listening to sounds and rating how similar,1,12,TICKLING,2,594,motyokoi,motyokoi_TICKLING
60cc47e2511368cdad732853,english,none,listening to sounds and rating how similar,1,13,GOOEY,1,1379,nebaneba,nebaneba_STICKY
60cc47e2511368cdad732853,english,none,listening to sounds and rating how similar,1,14,RINGING (E.G. A RINGING SOUND IN YOUR EARS),4,1165,tsuuN,tsuuN_RINGING
60cc47e2511368cdad732853,english,none,listening to sounds and rating how similar,1,15,TIGHT,1,1477,kyuukutsuka,kyuukutsuka_TIGHT
60cc47e2511368cdad732853,english,none,listening to sounds and rating how similar,1,16,FRESH,2,544,suzusyii,suzusyii_COOL
60cc47e2511368cdad732853,english,none,listening to sounds and rating how similar,1,17,(SPINE) TINGLING,3,787,zawazawa,zawazawa_SHIVERING
60cc47e2511368cdad732853,english,none,listening to sounds and rating how similar,1,18,WET,1,1035,syiQpori,syiQpori_WET
60cc47e2511368cdad732853,english,none,listening to sounds and rating how similar,1,19,SLIPPERY,3,939,nurunuru,nurunuru_SLIMY
60cc47e2511368cdad732853,english,none,listening to sounds and rating how similar,1,20,SLIMY,3,838,zuruNzuruN,zuruNzuruN_SLIMY
60cc47e2511368cdad732853,english,none,listening to sounds and rating how similar,1,21,COARSE,3,879,zarazara,zarazara_ROUGH
60cc47e2511368cdad732853,english,none,listening to sounds and rating how similar,1,22,MASSIVE,2,692,igai,igai_BIG
60cc47e2511368cdad732853,english,none,listening to sounds and rating how similar,1,23,PARCHED,1,872,koragu,koragu_DRY
60cc47e2511368cdad732853,english,none,listening to sounds and rating how similar,1,24,CUNNING,2,1283,kosui,kosui_CUNNING
60cc47e2511368cdad732853,english,none,listening to sounds and rating how similar,1,25,PRICKLING,1,1574,hasyikai,hasyikai_ITCHING
60cc47e2511368cdad732853,english,none,listening to sounds and rating how similar,1,26,CHILLY,3,515,sabui,sabui_COLD (WEATHER)
60cc47e2511368cdad732853,english,none,listening to sounds and rating how similar,1,27,GLUM,3,908,tsurai,tsurai_SAD
60cc47e2511368cdad732853,english,none,listening to sounds and rating how similar,1,28,EXHAUSTED,3,664,erai,erai_EXHAUSTED
60cc47e2511368cdad732853,english,none,listening to sounds and rating how similar,1,29,HARD,4,827,kowai,kowai_HARD
60cc47e2511368cdad732853,english,none,listening to sounds and rating how similar,1,30,COARSE,1,1250,deQkai,deQkai_ROUGH
60cc47e2511368cdad732853,english,none,listening to sounds and rating how similar,1,31,SLUGGISH,1,928,koe,koe_SLUGGISH
60cc47e2511368cdad732853,english,none,listening to sounds and rating how similar,1,32,HARD,4,891,katai,katai_HARD
60cc47e2511368cdad732853,english,none,listening to sounds and rating how similar,1,33,HOPPING,3,1015,pyoNpyoN,pyoNpyoN_HOPPING
60cc47e2511368cdad732853,english,none,listening to sounds and rating how similar,1,34,WHISPERING,3,1491,hisohiso,hisohiso_WHISPERING
5c4cd49f9446be00017e773f,Englisg,French,Japanese words sound like meaning,1,1,WOBBLING,6,4236,yoroyoro,yoroyoro_WOBBLING
5c4cd49f9446be00017e773f,Englisg,French,Japanese words sound like meaning,1,2,FLUFFY,4,5005,fuwafuwa,fuwafuwa_SOFT
5c4cd49f9446be00017e773f,Englisg,French,Japanese words sound like meaning,1,3,WATERY (EYES),4,908,syobosyobo,syobosyobo_WATERY (EYES)
5c4cd49f9446be00017e773f,Englisg,French,Japanese words sound like meaning,1,4,LIVELY,5,891,syaNsyaN,syaNsyaN_LIVELY
5c4cd49f9446be00017e773f,Englisg,French,Japanese words sound like meaning,1,5,WEARY,4,940,kaQtarii,kaQtarii_EXHAUSTED
5c4cd49f9446be00017e773f,Englisg,French,Japanese words sound like meaning,1,6,THROBBING,4,900,hirihiri,hirihiri_THROBBING
5c4cd49f9446be00017e773f,Englisg,French,Japanese words sound like meaning,1,7,TIDY,2,1370,kiree,kiree_CLEAN
5c4cd49f9446be00017e773f,Englisg,French,Japanese words sound like meaning,1,8,STUFFED (FROM EATING TOO MUCH),1,1759,kutyii,kutyii_STUFFED (FULL OF FOOD)
5c4cd49f9446be00017e773f,Englisg,French,Japanese words sound like meaning,1,9,BRIGHT,4,964,akarui,akarui_BRIGHT
5c4cd49f9446be00017e773f,Englisg,French,Japanese words sound like meaning,1,10,SHAKING,5,3338,uzyauzya,uzyauzya_SHAKING
5c4cd49f9446be00017e773f,Englisg,French,Japanese words sound like meaning,1,11,IMPATIENT,1,3630,yakiyaki,yakiyaki_ANNOYED/IMPATIENT
5c4cd49f9446be00017e773f,Englisg,French,Japanese words sound like meaning,1,12,TICKLING,2,1304,motyokoi,motyokoi_TICKLING
5c4cd49f9446be00017e773f,Englisg,French,Japanese words sound like meaning,1,13,GOOEY,2,2308,nebaneba,nebaneba_STICKY
5c4cd49f9446be00017e773f,Englisg,French,Japanese words sound like meaning,1,14,RINGING (E.G. A RINGING SOUND IN YOUR EARS),0,1247,tsuuN,tsuuN_RINGING
5c4cd49f9446be00017e773f,Englisg,French,Japanese words sound like meaning,1,15,PINCHING,3,2870,kyuukutsuka,kyuukutsuka_TIGHT
5c4cd49f9446be00017e773f,Englisg,French,Japanese words sound like meaning,1,16,COOL,2,965,suzusyii,suzusyii_COOL
5c4cd49f9446be00017e773f,Englisg,French,Japanese words sound like meaning,1,17,(SPINE) TINGLING,4,4080,zawazawa,zawazawa_SHIVERING
5c4cd49f9446be00017e773f,Englisg,French,Japanese words sound like meaning,1,18,DAMP,1,1937,syiQpori,syiQpori_WET
5c4cd49f9446be00017e773f,Englisg,French,Japanese words sound like meaning,1,19,SLIMY,4,1082,nurunuru,nurunuru_SLIMY
5c4cd49f9446be00017e773f,Englisg,French,Japanese words sound like meaning,1,20,GOOEY,4,5244,zuruNzuruN,zuruNzuruN_SLIMY
5c4cd49f9446be00017e773f,Englisg,French,Japanese words sound like meaning,1,21,COARSE,1,2625,zarazara,zarazara_ROUGH
5c4cd49f9446be00017e773f,Englisg,French,Japanese words sound like meaning,1,22,MASSIVE,3,2260,igai,igai_BIG
5c4cd49f9446be00017e773f,Englisg,French,Japanese words sound like meaning,1,23,DRY,1,1820,koragu,koragu_DRY
5c4cd49f9446be00017e773f,Englisg,French,Japanese words sound like meaning,1,24,SLY,1,1315,kosui,kosui_CUNNING
5c4cd49f9446be00017e773f,Englisg,French,Japanese words sound like meaning,1,25,PRICKLING,1,1214,hasyikai,hasyikai_ITCHING
5c4cd49f9446be00017e773f,Englisg,French,Japanese words sound like meaning,1,26,CHILLY,3,1100,sabui,sabui_COLD (WEATHER)
5c4cd49f9446be00017e773f,Englisg,French,Japanese words sound like meaning,1,27,GLUM,1,1760,tsurai,tsurai_SAD
5c4cd49f9446be00017e773f,Englisg,French,Japanese words sound like meaning,1,28,EXHAUSTED,1,3179,erai,erai_EXHAUSTED
5c4cd49f9446be00017e773f,Englisg,French,Japanese words sound like meaning,1,29,HARD,2,1588,kowai,kowai_HARD
5c4cd49f9446be00017e773f,Englisg,French,Japanese words sound like meaning,1,30,GRITTY,4,1409,deQkai,deQkai_ROUGH
5c4cd49f9446be00017e773f,Englisg,French,Japanese words sound like meaning,1,31,LETHARGIC,4,1278,koe,koe_SLUGGISH
5c4cd49f9446be00017e773f,Englisg,French,Japanese words sound like meaning,1,32,HARD,2,1269,katai,katai_HARD
5c4cd49f9446be00017e773f,Englisg,French,Japanese words sound like meaning,1,33,BOUNCING,6,1091,pyoNpyoN,pyoNpyoN_HOPPING
5c4cd49f9446be00017e773f,Englisg,French,Japanese words sound like meaning,1,34,WHISPERING,4,860,hisohiso,hisohiso_WHISPERING
5ea5b95e110e6903e86fdf10,English,Spanish,Rating whether Japanese words sounded relevant to the meaning of the word,1,1,WOBBLING,6,3794,yoroyoro,yoroyoro_WOBBLING
5ea5b95e110e6903e86fdf10,English,Spanish,Rating whether Japanese words sounded relevant to the meaning of the word,1,2,FLUFFY,4,1101,fuwafuwa,fuwafuwa_SOFT
5ea5b95e110e6903e86fdf10,English,Spanish,Rating whether Japanese words sounded relevant to the meaning of the word,1,3,WATERY (EYES),3,1595,syobosyobo,syobosyobo_WATERY (EYES)
5ea5b95e110e6903e86fdf10,English,Spanish,Rating whether Japanese words sounded relevant to the meaning of the word,1,4,ENERGETIC,2,1686,syaNsyaN,syaNsyaN_LIVELY
5ea5b95e110e6903e86fdf10,English,Spanish,Rating whether Japanese words sounded relevant to the meaning of the word,1,5,EXHAUSTED,2,1196,kaQtarii,kaQtarii_EXHAUSTED
5ea5b95e110e6903e86fdf10,English,Spanish,Rating whether Japanese words sounded relevant to the meaning of the word,1,6,PULSATING,3,2577,hirihiri,hirihiri_THROBBING
5ea5b95e110e6903e86fdf10,English,Spanish,Rating whether Japanese words sounded relevant to the meaning of the word,1,7,TIDY,3,987,kiree,kiree_CLEAN
5ea5b95e110e6903e86fdf10,English,Spanish,Rating whether Japanese words sounded relevant to the meaning of the word,1,8,FULL (FROM EATING),2,1581,kutyii,kutyii_STUFFED (FULL OF FOOD)
5ea5b95e110e6903e86fdf10,English,Spanish,Rating whether Japanese words sounded relevant to the meaning of the word,1,9,BRIGHT,1,1355,akarui,akarui_BRIGHT
5ea5b95e110e6903e86fdf10,English,Spanish,Rating whether Japanese words sounded relevant to the meaning of the word,1,10,TREMBLING,2,561,uzyauzya,uzyauzya_SHAKING
5ea5b95e110e6903e86fdf10,English,Spanish,Rating whether Japanese words sounded relevant to the meaning of the word,1,11,ANNOYED,4,1819,yakiyaki,yakiyaki_ANNOYED/IMPATIENT
5ea5b95e110e6903e86fdf10,English,Spanish,Rating whether Japanese words sounded relevant to the meaning of the word,1,12,TICKLING,3,1108,motyokoi,motyokoi_TICKLING
5ea5b95e110e6903e86fdf10,English,Spanish,Rating whether Japanese words sounded relevant to the meaning of the word,1,13,STICKY,1,1615,nebaneba,nebaneba_STICKY
5ea5b95e110e6903e86fdf10,English,Spanish,Rating whether Japanese words sounded relevant to the meaning of the word,1,14,RINGING (E.G. A RINGING SOUND IN YOUR EARS),6,1311,tsuuN,tsuuN_RINGING
5ea5b95e110e6903e86fdf10,English,Spanish,Rating whether Japanese words sounded relevant to the meaning of the word,1,15,PINCHING,2,1305,kyuukutsuka,kyuukutsuka_TIGHT
5ea5b95e110e6903e86fdf10,English,Spanish,Rating whether Japanese words sounded relevant to the meaning of the word,1,16,COOL,1,970,suzusyii,suzusyii_COOL
5ea5b95e110e6903e86fdf10,English,Spanish,Rating whether Japanese words sounded relevant to the meaning of the word,1,17,(SPINE) TINGLING,4,896,zawazawa,zawazawa_SHIVERING
5ea5b95e110e6903e86fdf10,English,Spanish,Rating whether Japanese words sounded relevant to the meaning of the word,1,18,SOGGY,5,2230,syiQpori,syiQpori_WET
5ea5b95e110e6903e86fdf10,English,Spanish,Rating whether Japanese words sounded relevant to the meaning of the word,1,19,SLIMY,4,1755,nurunuru,nurunuru_SLIMY
5ea5b95e110e6903e86fdf10,English,Spanish,Rating whether Japanese words sounded relevant to the meaning of the word,1,20,GOOEY,4,1262,zuruNzuruN,zuruNzuruN_SLIMY
5ea5b95e110e6903e86fdf10,English,Spanish,Rating whether Japanese words sounded relevant to the meaning of the word,1,21,GRITTY,2,885,zarazara,zarazara_ROUGH
5ea5b95e110e6903e86fdf10,English,Spanish,Rating whether Japanese words sounded relevant to the meaning of the word,1,22,MASSIVE,1,1447,igai,igai_BIG
5ea5b95e110e6903e86fdf10,English,Spanish,Rating whether Japanese words sounded relevant to the meaning of the word,1,23,DRY,1,772,koragu,koragu_DRY
5ea5b95e110e6903e86fdf10,English,Spanish,Rating whether Japanese words sounded relevant to the meaning of the word,1,24,SNEAKY,1,1277,kosui,kosui_CUNNING
5ea5b95e110e6903e86fdf10,English,Spanish,Rating whether Japanese words sounded relevant to the meaning of the word,1,25,ITCHING,3,1379,hasyikai,hasyikai_ITCHING
5ea5b95e110e6903e86fdf10,English,Spanish,Rating whether Japanese words sounded relevant to the meaning of the word,1,26,CHILLY,2,715,sabui,sabui_COLD (WEATHER)
5ea5b95e110e6903e86fdf10,English,Spanish,Rating whether Japanese words sounded relevant to the meaning of the word,1,27,SAD,2,2499,tsurai,tsurai_SAD
5ea5b95e110e6903e86fdf10,English,Spanish,Rating whether Japanese words sounded relevant to the meaning of the word,1,28,TIRED,3,2557,erai,erai_EXHAUSTED
5ea5b95e110e6903e86fdf10,English,Spanish,Rating whether Japanese words sounded relevant to the meaning of the word,1,29,HARD,1,3912,kowai,kowai_HARD
5ea5b95e110e6903e86fdf10,English,Spanish,Rating whether Japanese words sounded relevant to the meaning of the word,1,30,GRITTY,2,1115,deQkai,deQkai_ROUGH
5ea5b95e110e6903e86fdf10,English,Spanish,Rating whether Japanese words sounded relevant to the meaning of the word,1,31,LETHARGIC,2,2337,koe,koe_SLUGGISH
5ea5b95e110e6903e86fdf10,English,Spanish,Rating whether Japanese words sounded relevant to the meaning of the word,1,32,HARD,4,1676,katai,katai_HARD
5ea5b95e110e6903e86fdf10,English,Spanish,Rating whether Japanese words sounded relevant to the meaning of the word,1,33,BOUNCING,6,1003,pyoNpyoN,pyoNpyoN_HOPPING
5ea5b95e110e6903e86fdf10,English,Spanish,Rating whether Japanese words sounded relevant to the meaning of the word,1,34,WHISPERING,6,1029,hisohiso,hisohiso_WHISPERING
5e14ef83c12a36b08f3a1162,English,None,Listening to Japanese work and seeing if the sounds have relevance to their meaning,1,1,WOBBLING,0,3022,yoroyoro,yoroyoro_WOBBLING
5e14ef83c12a36b08f3a1162,English,None,Listening to Japanese work and seeing if the sounds have relevance to their meaning,1,2,FLUFFY,3,2097,fuwafuwa,fuwafuwa_SOFT
5e14ef83c12a36b08f3a1162,English,None,Listening to Japanese work and seeing if the sounds have relevance to their meaning,1,3,BLEARY (EYES),0,950,syobosyobo,syobosyobo_WATERY (EYES)
5e14ef83c12a36b08f3a1162,English,None,Listening to Japanese work and seeing if the sounds have relevance to their meaning,1,4,ENERGETIC,1,1169,syaNsyaN,syaNsyaN_LIVELY
5e14ef83c12a36b08f3a1162,English,None,Listening to Japanese work and seeing if the sounds have relevance to their meaning,1,5,EXHAUSTED,0,897,kaQtarii,kaQtarii_EXHAUSTED
5e14ef83c12a36b08f3a1162,English,None,Listening to Japanese work and seeing if the sounds have relevance to their meaning,1,6,THROBBING,2,1010,hirihiri,hirihiri_THROBBING
5e14ef83c12a36b08f3a1162,English,None,Listening to Japanese work and seeing if the sounds have relevance to their meaning,1,7,TIDY,0,919,kiree,kiree_CLEAN
5e14ef83c12a36b08f3a1162,English,None,Listening to Japanese work and seeing if the sounds have relevance to their meaning,1,8,FULL (FROM EATING),1,945,kutyii,kutyii_STUFFED (FULL OF FOOD)
5e14ef83c12a36b08f3a1162,English,None,Listening to Japanese work and seeing if the sounds have relevance to their meaning,1,9,BRIGHT,0,924,akarui,akarui_BRIGHT
5e14ef83c12a36b08f3a1162,English,None,Listening to Japanese work and seeing if the sounds have relevance to their meaning,1,10,SHAKING,3,1812,uzyauzya,uzyauzya_SHAKING
5e14ef83c12a36b08f3a1162,English,None,Listening to Japanese work and seeing if the sounds have relevance to their meaning,1,11,ANNOYED,2,2015,yakiyaki,yakiyaki_ANNOYED/IMPATIENT
5e14ef83c12a36b08f3a1162,English,None,Listening to Japanese work and seeing if the sounds have relevance to their meaning,1,12,TICKLING,0,934,motyokoi,motyokoi_TICKLING
5e14ef83c12a36b08f3a1162,English,None,Listening to Japanese work and seeing if the sounds have relevance to their meaning,1,13,STICKY,0,968,nebaneba,nebaneba_STICKY
5e14ef83c12a36b08f3a1162,English,None,Listening to Japanese work and seeing if the sounds have relevance to their meaning,1,14,RINGING (E.G. A RINGING SOUND IN YOUR EARS),2,3069,tsuuN,tsuuN_RINGING
5e14ef83c12a36b08f3a1162,English,None,Listening to Japanese work and seeing if the sounds have relevance to their meaning,1,15,PINCHING,0,944,kyuukutsuka,kyuukutsuka_TIGHT
5e14ef83c12a36b08f3a1162,English,None,Listening to Japanese work and seeing if the sounds have relevance to their meaning,1,16,FRESH,2,3106,suzusyii,suzusyii_COOL
5e14ef83c12a36b08f3a1162,English,None,Listening to Japanese work and seeing if the sounds have relevance to their meaning,1,17,(SPINE) TINGLING,1,860,zawazawa,zawazawa_SHIVERING
5e14ef83c12a36b08f3a1162,English,None,Listening to Japanese work and seeing if the sounds have relevance to their meaning,1,18,WET,0,1941,syiQpori,syiQpori_WET
5e14ef83c12a36b08f3a1162,English,None,Listening to Japanese work and seeing if the sounds have relevance to their meaning,1,19,SLIMY,0,1353,nurunuru,nurunuru_SLIMY
5e14ef83c12a36b08f3a1162,English,None,Listening to Japanese work and seeing if the sounds have relevance to their meaning,1,20,GOOEY,1,2352,zuruNzuruN,zuruNzuruN_SLIMY
5e14ef83c12a36b08f3a1162,English,None,Listening to Japanese work and seeing if the sounds have relevance to their meaning,1,21,GRITTY,1,1039,zarazara,zarazara_ROUGH
5e14ef83c12a36b08f3a1162,English,None,Listening to Japanese work and seeing if the sounds have relevance to their meaning,1,22,LARGE,0,904,igai,igai_BIG
5e14ef83c12a36b08f3a1162,English,None,Listening to Japanese work and seeing if the sounds have relevance to their meaning,1,23,DRY,0,776,koragu,koragu_DRY
5e14ef83c12a36b08f3a1162,English,None,Listening to Japanese work and seeing if the sounds have relevance to their meaning,1,24,SLY,0,2261,kosui,kosui_CUNNING
5e14ef83c12a36b08f3a1162,English,None,Listening to Japanese work and seeing if the sounds have relevance to their meaning,1,25,ITCHING,0,1305,hasyikai,hasyikai_ITCHING
5e14ef83c12a36b08f3a1162,English,None,Listening to Japanese work and seeing if the sounds have relevance to their meaning,1,26,CHILLY,0,1840,sabui,sabui_COLD (WEATHER)
5e14ef83c12a36b08f3a1162,English,None,Listening to Japanese work and seeing if the sounds have relevance to their meaning,1,27,GLUM,0,982,tsurai,tsurai_SAD
5e14ef83c12a36b08f3a1162,English,None,Listening to Japanese work and seeing if the sounds have relevance to their meaning,1,28,EXHAUSTED,0,1220,erai,erai_EXHAUSTED
5e14ef83c12a36b08f3a1162,English,None,Listening to Japanese work and seeing if the sounds have relevance to their meaning,1,29,HARD,0,924,kowai,kowai_HARD
5e14ef83c12a36b08f3a1162,English,None,Listening to Japanese work and seeing if the sounds have relevance to their meaning,1,30,ROUGH,0,1050,deQkai,deQkai_ROUGH
5e14ef83c12a36b08f3a1162,English,None,Listening to Japanese work and seeing if the sounds have relevance to their meaning,1,31,SLUGGISH,2,1065,koe,koe_SLUGGISH
5e14ef83c12a36b08f3a1162,English,None,Listening to Japanese work and seeing if the sounds have relevance to their meaning,1,32,HARD,0,1866,katai,katai_HARD
5e14ef83c12a36b08f3a1162,English,None,Listening to Japanese work and seeing if the sounds have relevance to their meaning,1,33,HOPPING,4,1135,pyoNpyoN,pyoNpyoN_HOPPING
5e14ef83c12a36b08f3a1162,English,None,Listening to Japanese work and seeing if the sounds have relevance to their meaning,1,34,WHISPERING,3,1174,hisohiso,hisohiso_WHISPERING
5fac27c3d36215175077fa0a,English,German,Rating Japanese words for how they sound compared to their english meaning,1,1,WOBBLING,6,7825,yoroyoro,yoroyoro_WOBBLING
5fac27c3d36215175077fa0a,English,German,Rating Japanese words for how they sound compared to their english meaning,1,2,FLUFFY,1,2848,fuwafuwa,fuwafuwa_SOFT
5fac27c3d36215175077fa0a,English,German,Rating Japanese words for how they sound compared to their english meaning,1,3,WATERY (EYES),4,1580,syobosyobo,syobosyobo_WATERY (EYES)
5fac27c3d36215175077fa0a,English,German,Rating Japanese words for how they sound compared to their english meaning,1,4,ENERGETIC,2,734,syaNsyaN,syaNsyaN_LIVELY
5fac27c3d36215175077fa0a,English,German,Rating Japanese words for how they sound compared to their english meaning,1,5,TIRED,2,935,kaQtarii,kaQtarii_EXHAUSTED
5fac27c3d36215175077fa0a,English,German,Rating Japanese words for how they sound compared to their english meaning,1,6,THROBBING,5,927,hirihiri,hirihiri_THROBBING
5fac27c3d36215175077fa0a,English,German,Rating Japanese words for how they sound compared to their english meaning,1,7,CLEAN,5,1146,kiree,kiree_CLEAN
5fac27c3d36215175077fa0a,English,German,Rating Japanese words for how they sound compared to their english meaning,1,8,FULL (FROM EATING),4,1052,kutyii,kutyii_STUFFED (FULL OF FOOD)
5fac27c3d36215175077fa0a,English,German,Rating Japanese words for how they sound compared to their english meaning,1,9,SUNNY,3,1218,akarui,akarui_BRIGHT
5fac27c3d36215175077fa0a,English,German,Rating Japanese words for how they sound compared to their english meaning,1,10,SHAKING,5,663,uzyauzya,uzyauzya_SHAKING
5fac27c3d36215175077fa0a,English,German,Rating Japanese words for how they sound compared to their english meaning,1,11,IMPATIENT,6,977,yakiyaki,yakiyaki_ANNOYED/IMPATIENT
5fac27c3d36215175077fa0a,English,German,Rating Japanese words for how they sound compared to their english meaning,1,12,TICKLING,2,782,motyokoi,motyokoi_TICKLING
5fac27c3d36215175077fa0a,English,German,Rating Japanese words for how they sound compared to their english meaning,1,13,GOOEY,3,583,nebaneba,nebaneba_STICKY
5fac27c3d36215175077fa0a,English,German,Rating Japanese words for how they sound compared to their english meaning,1,14,RINGING (E.G. A RINGING SOUND IN YOUR EARS),2,2251,tsuuN,tsuuN_RINGING
5fac27c3d36215175077fa0a,English,German,Rating Japanese words for how they sound compared to their english meaning,1,15,TIGHT,1,1161,kyuukutsuka,kyuukutsuka_TIGHT
5fac27c3d36215175077fa0a,English,German,Rating Japanese words for how they sound compared to their english meaning,1,16,FRESH,4,642,suzusyii,suzusyii_COOL
5fac27c3d36215175077fa0a,English,German,Rating Japanese words for how they sound compared to their english meaning,1,17,(SPINE) TINGLING,1,1096,zawazawa,zawazawa_SHIVERING
5fac27c3d36215175077fa0a,English,German,Rating Japanese words for how they sound compared to their english meaning,1,18,WET,5,1008,syiQpori,syiQpori_WET
5fac27c3d36215175077fa0a,English,German,Rating Japanese words for how they sound compared to their english meaning,1,19,SLIPPERY,2,1553,nurunuru,nurunuru_SLIMY
5fac27c3d36215175077fa0a,English,German,Rating Japanese words for how they sound compared to their english meaning,1,20,GOOEY,1,1065,zuruNzuruN,zuruNzuruN_SLIMY
5fac27c3d36215175077fa0a,English,German,Rating Japanese words for how they sound compared to their english meaning,1,21,GRITTY,2,817,zarazara,zarazara_ROUGH
5fac27c3d36215175077fa0a,English,German,Rating Japanese words for how they sound compared to their english meaning,1,22,HUGE,2,597,igai,igai_BIG
5fac27c3d36215175077fa0a,English,German,Rating Japanese words for how they sound compared to their english meaning,1,23,DRY,1,693,koragu,koragu_DRY
5fac27c3d36215175077fa0a,English,German,Rating Japanese words for how they sound compared to their english meaning,1,24,SLY,3,1134,kosui,kosui_CUNNING
5fac27c3d36215175077fa0a,English,German,Rating Japanese words for how they sound compared to their english meaning,1,25,PRICKLING,1,682,hasyikai,hasyikai_ITCHING
5fac27c3d36215175077fa0a,English,German,Rating Japanese words for how they sound compared to their english meaning,1,26,COLD,3,604,sabui,sabui_COLD (WEATHER)
5fac27c3d36215175077fa0a,English,German,Rating Japanese words for how they sound compared to their english meaning,1,27,SAD,4,1394,tsurai,tsurai_SAD
5fac27c3d36215175077fa0a,English,German,Rating Japanese words for how they sound compared to their english meaning,1,28,EXHAUSTED,1,963,erai,erai_EXHAUSTED
5fac27c3d36215175077fa0a,English,German,Rating Japanese words for how they sound compared to their english meaning,1,29,HARD,5,1461,kowai,kowai_HARD
5fac27c3d36215175077fa0a,English,German,Rating Japanese words for how they sound compared to their english meaning,1,30,GRITTY,3,1118,deQkai,deQkai_ROUGH
5fac27c3d36215175077fa0a,English,German,Rating Japanese words for how they sound compared to their english meaning,1,31,LETHARGIC,0,948,koe,koe_SLUGGISH
5fac27c3d36215175077fa0a,English,German,Rating Japanese words for how they sound compared to their english meaning,1,32,HARD,3,822,katai,katai_HARD
5fac27c3d36215175077fa0a,English,German,Rating Japanese words for how they sound compared to their english meaning,1,33,HOPPING,4,952,pyoNpyoN,pyoNpyoN_HOPPING
5fac27c3d36215175077fa0a,English,German,Rating Japanese words for how they sound compared to their english meaning,1,34,WHISPERING,4,1259,hisohiso,hisohiso_WHISPERING
5a9529d0f6dfdd0001ea5403,English,NA,Rating how Japanese words resemble English words,1,1,WOBBLING,4,4444,yoroyoro,yoroyoro_WOBBLING
5a9529d0f6dfdd0001ea5403,English,NA,Rating how Japanese words resemble English words,1,2,FLUFFY,6,1943,fuwafuwa,fuwafuwa_SOFT
5a9529d0f6dfdd0001ea5403,English,NA,Rating how Japanese words resemble English words,1,3,BLEARY (EYES),0,963,syobosyobo,syobosyobo_WATERY (EYES)
5a9529d0f6dfdd0001ea5403,English,NA,Rating how Japanese words resemble English words,1,4,ENERGETIC,0,1009,syaNsyaN,syaNsyaN_LIVELY
5a9529d0f6dfdd0001ea5403,English,NA,Rating how Japanese words resemble English words,1,5,WEARY,1,1409,kaQtarii,kaQtarii_EXHAUSTED
5a9529d0f6dfdd0001ea5403,English,NA,Rating how Japanese words resemble English words,1,6,PULSATING,0,7875,hirihiri,hirihiri_THROBBING
5a9529d0f6dfdd0001ea5403,English,NA,Rating how Japanese words resemble English words,1,7,TIDY,0,2468,kiree,kiree_CLEAN
5a9529d0f6dfdd0001ea5403,English,NA,Rating how Japanese words resemble English words,1,8,FULL (FROM EATING),0,1424,kutyii,kutyii_STUFFED (FULL OF FOOD)
5a9529d0f6dfdd0001ea5403,English,NA,Rating how Japanese words resemble English words,1,9,SUNNY,0,3403,akarui,akarui_BRIGHT
5a9529d0f6dfdd0001ea5403,English,NA,Rating how Japanese words resemble English words,1,10,SHAKING,0,1544,uzyauzya,uzyauzya_SHAKING
5a9529d0f6dfdd0001ea5403,English,NA,Rating how Japanese words resemble English words,1,11,ANNOYED,0,17179,yakiyaki,yakiyaki_ANNOYED/IMPATIENT
5a9529d0f6dfdd0001ea5403,English,NA,Rating how Japanese words resemble English words,1,12,TICKLING,0,2711,motyokoi,motyokoi_TICKLING
5a9529d0f6dfdd0001ea5403,English,NA,Rating how Japanese words resemble English words,1,13,GOOEY,0,946,nebaneba,nebaneba_STICKY
5a9529d0f6dfdd0001ea5403,English,NA,Rating how Japanese words resemble English words,1,14,RINGING (E.G. A RINGING SOUND IN YOUR EARS),0,1792,tsuuN,tsuuN_RINGING
5a9529d0f6dfdd0001ea5403,English,NA,Rating how Japanese words resemble English words,1,15,TIGHT,0,1998,kyuukutsuka,kyuukutsuka_TIGHT
5a9529d0f6dfdd0001ea5403,English,NA,Rating how Japanese words resemble English words,1,16,FRESH,2,4183,suzusyii,suzusyii_COOL
5a9529d0f6dfdd0001ea5403,English,NA,Rating how Japanese words resemble English words,1,17,SHIVERS (DOWN YOUR SPINE),0,6801,zawazawa,zawazawa_SHIVERING
5a9529d0f6dfdd0001ea5403,English,NA,Rating how Japanese words resemble English words,1,18,SOGGY,3,1417,syiQpori,syiQpori_WET
5a9529d0f6dfdd0001ea5403,English,NA,Rating how Japanese words resemble English words,1,19,SLIPPERY,0,1613,nurunuru,nurunuru_SLIMY
5a9529d0f6dfdd0001ea5403,English,NA,Rating how Japanese words resemble English words,1,20,SLIMY,0,4394,zuruNzuruN,zuruNzuruN_SLIMY
5a9529d0f6dfdd0001ea5403,English,NA,Rating how Japanese words resemble English words,1,21,COARSE,0,1496,zarazara,zarazara_ROUGH
5a9529d0f6dfdd0001ea5403,English,NA,Rating how Japanese words resemble English words,1,22,BIG,3,8812,igai,igai_BIG
5a9529d0f6dfdd0001ea5403,English,NA,Rating how Japanese words resemble English words,1,23,DRY,0,1136,koragu,koragu_DRY
5a9529d0f6dfdd0001ea5403,English,NA,Rating how Japanese words resemble English words,1,24,SNEAKY,0,1389,kosui,kosui_CUNNING
5a9529d0f6dfdd0001ea5403,English,NA,Rating how Japanese words resemble English words,1,25,PRICKLING,0,1310,hasyikai,hasyikai_ITCHING
5a9529d0f6dfdd0001ea5403,English,NA,Rating how Japanese words resemble English words,1,26,COLD,0,4736,sabui,sabui_COLD (WEATHER)
5a9529d0f6dfdd0001ea5403,English,NA,Rating how Japanese words resemble English words,1,27,SAD,0,1227,tsurai,tsurai_SAD
5a9529d0f6dfdd0001ea5403,English,NA,Rating how Japanese words resemble English words,1,28,TIRED,2,1470,erai,erai_EXHAUSTED
5a9529d0f6dfdd0001ea5403,English,NA,Rating how Japanese words resemble English words,1,29,HARD,0,1266,kowai,kowai_HARD
5a9529d0f6dfdd0001ea5403,English,NA,Rating how Japanese words resemble English words,1,30,GRITTY,4,1552,deQkai,deQkai_ROUGH
5a9529d0f6dfdd0001ea5403,English,NA,Rating how Japanese words resemble English words,1,31,SLUGGISH,0,1070,koe,koe_SLUGGISH
5a9529d0f6dfdd0001ea5403,English,NA,Rating how Japanese words resemble English words,1,32,HARD,3,1554,katai,katai_HARD
5a9529d0f6dfdd0001ea5403,English,NA,Rating how Japanese words resemble English words,1,33,HOPPING,2,2228,pyoNpyoN,pyoNpyoN_HOPPING
5a9529d0f6dfdd0001ea5403,English,NA,Rating how Japanese words resemble English words,1,34,WHISPERING,0,9951,hisohiso,hisohiso_WHISPERING
5ec2a79581fa8a09897fae88,English,"French, Spanish",Listening to Japanese sounds and documenting how well they fit their meaning,1,1,WOBBLING,5,5729,yoroyoro,yoroyoro_WOBBLING
5ec2a79581fa8a09897fae88,English,"French, Spanish",Listening to Japanese sounds and documenting how well they fit their meaning,1,2,FLUFFY,3,3331,fuwafuwa,fuwafuwa_SOFT
5ec2a79581fa8a09897fae88,English,"French, Spanish",Listening to Japanese sounds and documenting how well they fit their meaning,1,3,WATERY (EYES),0,924,syobosyobo,syobosyobo_WATERY (EYES)
5ec2a79581fa8a09897fae88,English,"French, Spanish",Listening to Japanese sounds and documenting how well they fit their meaning,1,4,ENERGETIC,1,1945,syaNsyaN,syaNsyaN_LIVELY
