ProlificID,NativeLang,OtherLangs,TaskDesc,trial,trans,foil,answer,ReactionTime,form,identifier,result
59646f5198cf77000106feb1,English,NA,Translating another language,1,WOBBLING,http://honestcookingblog.com/soundfiles/boNyari.mp3,B,4504,yoroyoro,yoroyoro_WOBBLING,incorrect
59646f5198cf77000106feb1,English,NA,Translating another language,2,FLUFFY,http://honestcookingblog.com/soundfiles/yakiyaki.mp3,B,1558,fuwafuwa,fuwafuwa_SOFT,correct
59646f5198cf77000106feb1,English,NA,Translating another language,3,LOUD,http://honestcookingblog.com/soundfiles/fuwafuwa.mp3,A,1750,yakamasyii,yakamasyii_NOISY,correct
59646f5198cf77000106feb1,English,NA,Translating another language,4,HUGE,http://honestcookingblog.com/soundfiles/geNki.mp3,B,1236,ookii,ookii_BIG,correct
59646f5198cf77000106feb1,English,NA,Translating another language,5,SLIMY,http://honestcookingblog.com/soundfiles/zoNzoN.mp3,A,2908,nurunuru,nurunuru_SLIMY,correct
59646f5198cf77000106feb1,English,NA,Translating another language,6,BLURRY,http://honestcookingblog.com/soundfiles/yakamasyii.mp3,A,1087,boNyari,boNyari_FUZZY,incorrect
59646f5198cf77000106feb1,English,NA,Translating another language,7,FULL (TO THE BRIM),http://honestcookingblog.com/soundfiles/katai.mp3,B,1306,iQpai,iQpai_FULL (TO THE BRIM),incorrect
59646f5198cf77000106feb1,English,NA,Translating another language,8,RIP,http://honestcookingblog.com/soundfiles/semai.mp3,A,1310,saku,saku_TEAR,incorrect
59646f5198cf77000106feb1,English,NA,Translating another language,9,RINGING (E.G. A RINGING SOUND IN YOUR EARS),http://honestcookingblog.com/soundfiles/motyokoi.mp3,B,1258,kiiN,kiiN_RINGING,incorrect
59646f5198cf77000106feb1,English,NA,Translating another language,10,TIGHT,http://honestcookingblog.com/soundfiles/yagurasyika.mp3,B,1219,kyuukutsuka,kyuukutsuka_TIGHT,correct
59646f5198cf77000106feb1,English,NA,Translating another language,11,COARSE,http://honestcookingblog.com/soundfiles/saku.mp3,B,1305,zarazara,zarazara_ROUGH,incorrect
59646f5198cf77000106feb1,English,NA,Translating another language,12,STICKY,http://honestcookingblog.com/soundfiles/zuruNzuruN.mp3,B,1044,nebaneba,nebaneba_STICKY,correct
59646f5198cf77000106feb1,English,NA,Translating another language,13,NOISY,http://honestcookingblog.com/soundfiles/kiiN.mp3,A,2046,yagurasyika,yagurasyika_NOISY,correct
59646f5198cf77000106feb1,English,NA,Translating another language,14,TIGHT,http://honestcookingblog.com/soundfiles/iQpai.mp3,A,2240,semai,semai_CRAMPED,incorrect
59646f5198cf77000106feb1,English,NA,Translating another language,15,TINY,http://honestcookingblog.com/soundfiles/zyiNzyiN.mp3,B,1283,tyiQtyai,tyiQtyai_SMALL,incorrect
59646f5198cf77000106feb1,English,NA,Translating another language,16,TICKLING,http://honestcookingblog.com/soundfiles/yakiyaki.mp3,B,1035,motyokoi,motyokoi_TICKLING,correct
59646f5198cf77000106feb1,English,NA,Translating another language,17,WEARY,http://honestcookingblog.com/soundfiles/kiiN.mp3,B,1312,kutakuta,kutakuta_EXHAUSTED,incorrect
59646f5198cf77000106feb1,English,NA,Translating another language,18,SLIMY,http://honestcookingblog.com/soundfiles/semai.mp3,B,1363,zuruNzuruN,zuruNzuruN_SLIMY,correct
59646f5198cf77000106feb1,English,NA,Translating another language,19,ANNOYED,http://honestcookingblog.com/soundfiles/kiree.mp3,A,1245,yakiyaki,yakiyaki_ANNOYED/IMPATIENT,correct
59646f5198cf77000106feb1,English,NA,Translating another language,20,SUCK,http://honestcookingblog.com/soundfiles/yakiyaki.mp3,B,1373,suu,suu_SUCK,correct
59646f5198cf77000106feb1,English,NA,Translating another language,21,THROBBING (E.G. HEADACHE),http://honestcookingblog.com/soundfiles/semai.mp3,A,1371,zyiNzyiN,zyiNzyiN_POUNDING (HEAD),correct
59646f5198cf77000106feb1,English,NA,Translating another language,22,TIRED,http://honestcookingblog.com/soundfiles/suu.mp3,A,1508,hetoheto,hetoheto_EXHAUSTED,incorrect
59646f5198cf77000106feb1,English,NA,Translating another language,23,CLEAN,http://honestcookingblog.com/soundfiles/suu.mp3,B,1631,kiree,kiree_CLEAN,incorrect
59646f5198cf77000106feb1,English,NA,Translating another language,24,SHIVERS (DOWN YOUR SPINE),http://honestcookingblog.com/soundfiles/semai.mp3,A,2486,zoNzoN,zoNzoN_SHIVERING,incorrect
59646f5198cf77000106feb1,English,NA,Translating another language,25,ENERGETIC,http://honestcookingblog.com/soundfiles/zoNzoN.mp3,B,1042,geNki,geNki_LIVELY,incorrect
59646f5198cf77000106feb1,English,NA,Translating another language,26,STUFFED (FROM EATING TOO MUCH),http://honestcookingblog.com/soundfiles/fuwafuwa.mp3,B,1224,maNpuku,maNpuku_STUFFED (FULL OF FOOD),correct
59646f5198cf77000106feb1,English,NA,Translating another language,27,SNEAKY,http://honestcookingblog.com/soundfiles/kutakuta.mp3,A,1692,kosui,kosui_CUNNING,correct
59646f5198cf77000106feb1,English,NA,Translating another language,28,HARD,http://honestcookingblog.com/soundfiles/zuruNzuruN.mp3,B,1138,katai,katai_HARD,correct
59646f5198cf77000106feb1,English,NA,Translating another language,29,BOUNCING,http://honestcookingblog.com/soundfiles/yagurasyika.mp3,B,1452,pyoNpyoN,pyoNpyoN_HOPPING,incorrect
59646f5198cf77000106feb1,English,NA,Translating another language,30,WHISPERING,http://honestcookingblog.com/soundfiles/kiiN.mp3,B,978,hisohiso,hisohiso_WHISPERING,correct
60e085b4c1fa6cf7858aab86,english,NA,a clue into which was the right answer would have made the survey more entertaining,1,WOBBLING,http://honestcookingblog.com/soundfiles/zarazara.mp3,A,3311,yoroyoro,yoroyoro_WOBBLING,correct
60e085b4c1fa6cf7858aab86,english,NA,a clue into which was the right answer would have made the survey more entertaining,2,FLUFFY,http://honestcookingblog.com/soundfiles/zuruNzuruN.mp3,B,1706,fuwafuwa,fuwafuwa_SOFT,correct
60e085b4c1fa6cf7858aab86,english,NA,a clue into which was the right answer would have made the survey more entertaining,3,LOUD,http://honestcookingblog.com/soundfiles/suu.mp3,A,918,yakamasyii,yakamasyii_NOISY,correct
60e085b4c1fa6cf7858aab86,english,NA,a clue into which was the right answer would have made the survey more entertaining,4,BIG,http://honestcookingblog.com/soundfiles/pyoNpyoN.mp3,B,1109,ookii,ookii_BIG,correct
60e085b4c1fa6cf7858aab86,english,NA,a clue into which was the right answer would have made the survey more entertaining,5,SLIMY,http://honestcookingblog.com/soundfiles/hetoheto.mp3,B,866,nurunuru,nurunuru_SLIMY,incorrect
60e085b4c1fa6cf7858aab86,english,NA,a clue into which was the right answer would have made the survey more entertaining,6,FUZZY,http://honestcookingblog.com/soundfiles/maNpuku.mp3,B,5116,boNyari,boNyari_FUZZY,correct
60e085b4c1fa6cf7858aab86,english,NA,a clue into which was the right answer would have made the survey more entertaining,7,FULL (TO THE BRIM),http://honestcookingblog.com/soundfiles/kosui.mp3,B,806,iQpai,iQpai_FULL (TO THE BRIM),incorrect
60e085b4c1fa6cf7858aab86,english,NA,a clue into which was the right answer would have made the survey more entertaining,8,TEAR,http://honestcookingblog.com/soundfiles/ookii.mp3,B,4116,saku,saku_TEAR,correct
60e085b4c1fa6cf7858aab86,english,NA,a clue into which was the right answer would have made the survey more entertaining,9,RINGING (E.G. A RINGING SOUND IN YOUR EARS),http://honestcookingblog.com/soundfiles/nurunuru.mp3,B,1028,kiiN,kiiN_RINGING,incorrect
60e085b4c1fa6cf7858aab86,english,NA,a clue into which was the right answer would have made the survey more entertaining,10,PINCHING,http://honestcookingblog.com/soundfiles/zuruNzuruN.mp3,B,1013,kyuukutsuka,kyuukutsuka_TIGHT,correct
60e085b4c1fa6cf7858aab86,english,NA,a clue into which was the right answer would have made the survey more entertaining,11,GRITTY,http://honestcookingblog.com/soundfiles/yakamasyii.mp3,B,933,zarazara,zarazara_ROUGH,incorrect
60e085b4c1fa6cf7858aab86,english,NA,a clue into which was the right answer would have made the survey more entertaining,12,STICKY,http://honestcookingblog.com/soundfiles/nurunuru.mp3,A,3447,nebaneba,nebaneba_STICKY,incorrect
60e085b4c1fa6cf7858aab86,english,NA,a clue into which was the right answer would have made the survey more entertaining,13,NOISY,http://honestcookingblog.com/soundfiles/zuruNzuruN.mp3,B,987,yagurasyika,yagurasyika_NOISY,incorrect
60e085b4c1fa6cf7858aab86,english,NA,a clue into which was the right answer would have made the survey more entertaining,14,TIGHT,http://honestcookingblog.com/soundfiles/saku.mp3,A,830,semai,semai_CRAMPED,incorrect
60e085b4c1fa6cf7858aab86,english,NA,a clue into which was the right answer would have made the survey more entertaining,15,SMALL,http://honestcookingblog.com/soundfiles/kiree.mp3,A,4499,tyiQtyai,tyiQtyai_SMALL,correct
60e085b4c1fa6cf7858aab86,english,NA,a clue into which was the right answer would have made the survey more entertaining,16,TICKLING,http://honestcookingblog.com/soundfiles/suu.mp3,A,618,motyokoi,motyokoi_TICKLING,incorrect
60e085b4c1fa6cf7858aab86,english,NA,a clue into which was the right answer would have made the survey more entertaining,17,TIRED,http://honestcookingblog.com/soundfiles/hisohiso.mp3,B,836,kutakuta,kutakuta_EXHAUSTED,incorrect
60e085b4c1fa6cf7858aab86,english,NA,a clue into which was the right answer would have made the survey more entertaining,18,SLIMY,http://honestcookingblog.com/soundfiles/kosui.mp3,A,1009,zuruNzuruN,zuruNzuruN_SLIMY,incorrect
60e085b4c1fa6cf7858aab86,english,NA,a clue into which was the right answer would have made the survey more entertaining,19,IMPATIENT,http://honestcookingblog.com/soundfiles/yagurasyika.mp3,B,697,yakiyaki,yakiyaki_ANNOYED/IMPATIENT,incorrect
60e085b4c1fa6cf7858aab86,english,NA,a clue into which was the right answer would have made the survey more entertaining,20,SUCK,http://honestcookingblog.com/soundfiles/katai.mp3,B,1083,suu,suu_SUCK,correct
60e085b4c1fa6cf7858aab86,english,NA,a clue into which was the right answer would have made the survey more entertaining,21,POUNDING (E.G. HEADACHE),http://honestcookingblog.com/soundfiles/fuwafuwa.mp3,A,592,zyiNzyiN,zyiNzyiN_POUNDING (HEAD),correct
60e085b4c1fa6cf7858aab86,english,NA,a clue into which was the right answer would have made the survey more entertaining,22,TIRED,http://honestcookingblog.com/soundfiles/zuruNzuruN.mp3,A,1109,hetoheto,hetoheto_EXHAUSTED,incorrect
60e085b4c1fa6cf7858aab86,english,NA,a clue into which was the right answer would have made the survey more entertaining,23,CLEAN,http://honestcookingblog.com/soundfiles/geNki.mp3,B,876,kiree,kiree_CLEAN,incorrect
60e085b4c1fa6cf7858aab86,english,NA,a clue into which was the right answer would have made the survey more entertaining,24,SHIVERS (DOWN YOUR SPINE),http://honestcookingblog.com/soundfiles/yagurasyika.mp3,A,937,zoNzoN,zoNzoN_SHIVERING,incorrect
60e085b4c1fa6cf7858aab86,english,NA,a clue into which was the right answer would have made the survey more entertaining,25,LIVELY,http://honestcookingblog.com/soundfiles/yakiyaki.mp3,B,1285,geNki,geNki_LIVELY,incorrect
60e085b4c1fa6cf7858aab86,english,NA,a clue into which was the right answer would have made the survey more entertaining,26,STUFFED (FROM EATING TOO MUCH),http://honestcookingblog.com/soundfiles/fuwafuwa.mp3,B,2103,maNpuku,maNpuku_STUFFED (FULL OF FOOD),correct
60e085b4c1fa6cf7858aab86,english,NA,a clue into which was the right answer would have made the survey more entertaining,27,CUNNING,http://honestcookingblog.com/soundfiles/fuwafuwa.mp3,A,1787,kosui,kosui_CUNNING,correct
60e085b4c1fa6cf7858aab86,english,NA,a clue into which was the right answer would have made the survey more entertaining,28,HARD,http://honestcookingblog.com/soundfiles/zyiNzyiN.mp3,B,1174,katai,katai_HARD,correct
60e085b4c1fa6cf7858aab86,english,NA,a clue into which was the right answer would have made the survey more entertaining,29,HOPPING,http://honestcookingblog.com/soundfiles/kosui.mp3,A,967,pyoNpyoN,pyoNpyoN_HOPPING,correct
60e085b4c1fa6cf7858aab86,english,NA,a clue into which was the right answer would have made the survey more entertaining,30,WHISPERING,http://honestcookingblog.com/soundfiles/pyoNpyoN.mp3,A,1828,hisohiso,hisohiso_WHISPERING,incorrect
55d587718ce09000057d49c7,English,NA,Guessing what Japanese words mean in English,1,WOBBLING,http://honestcookingblog.com/soundfiles/yakamasyii.mp3,A,2176,yoroyoro,yoroyoro_WOBBLING,correct
55d587718ce09000057d49c7,English,NA,Guessing what Japanese words mean in English,2,FLUFFY,http://honestcookingblog.com/soundfiles/hisohiso.mp3,B,1672,fuwafuwa,fuwafuwa_SOFT,correct
55d587718ce09000057d49c7,English,NA,Guessing what Japanese words mean in English,3,LOUD,http://honestcookingblog.com/soundfiles/katai.mp3,B,620,yakamasyii,yakamasyii_NOISY,incorrect
55d587718ce09000057d49c7,English,NA,Guessing what Japanese words mean in English,4,MASSIVE,http://honestcookingblog.com/soundfiles/kiree.mp3,A,1952,ookii,ookii_BIG,incorrect
55d587718ce09000057d49c7,English,NA,Guessing what Japanese words mean in English,5,SLIPPERY,http://honestcookingblog.com/soundfiles/yagurasyika.mp3,A,1634,nurunuru,nurunuru_SLIMY,correct
55d587718ce09000057d49c7,English,NA,Guessing what Japanese words mean in English,6,FUZZY,http://honestcookingblog.com/soundfiles/tyiQtyai.mp3,A,2489,boNyari,boNyari_FUZZY,incorrect
55d587718ce09000057d49c7,English,NA,Guessing what Japanese words mean in English,7,FULL (TO BURSTING),http://honestcookingblog.com/soundfiles/zyiNzyiN.mp3,A,742,iQpai,iQpai_FULL (TO THE BRIM),correct
55d587718ce09000057d49c7,English,NA,Guessing what Japanese words mean in English,8,TEAR,http://honestcookingblog.com/soundfiles/geNki.mp3,B,2223,saku,saku_TEAR,correct
55d587718ce09000057d49c7,English,NA,Guessing what Japanese words mean in English,9,RINGING (E.G. A RINGING SOUND IN YOUR EARS),http://honestcookingblog.com/soundfiles/fuwafuwa.mp3,A,1666,kiiN,kiiN_RINGING,correct
55d587718ce09000057d49c7,English,NA,Guessing what Japanese words mean in English,10,PINCHING,http://honestcookingblog.com/soundfiles/fuwafuwa.mp3,B,2004,kyuukutsuka,kyuukutsuka_TIGHT,correct
55d587718ce09000057d49c7,English,NA,Guessing what Japanese words mean in English,11,GRITTY,http://honestcookingblog.com/soundfiles/saku.mp3,B,2375,zarazara,zarazara_ROUGH,incorrect
55d587718ce09000057d49c7,English,NA,Guessing what Japanese words mean in English,12,GOOEY,http://honestcookingblog.com/soundfiles/kiiN.mp3,A,746,nebaneba,nebaneba_STICKY,incorrect
55d587718ce09000057d49c7,English,NA,Guessing what Japanese words mean in English,13,NOISY,http://honestcookingblog.com/soundfiles/boNyari.mp3,A,733,yagurasyika,yagurasyika_NOISY,correct
55d587718ce09000057d49c7,English,NA,Guessing what Japanese words mean in English,14,TIGHT,http://honestcookingblog.com/soundfiles/fuwafuwa.mp3,B,2529,semai,semai_CRAMPED,correct
55d587718ce09000057d49c7,English,NA,Guessing what Japanese words mean in English,15,SMALL,http://honestcookingblog.com/soundfiles/kosui.mp3,B,883,tyiQtyai,tyiQtyai_SMALL,incorrect
55d587718ce09000057d49c7,English,NA,Guessing what Japanese words mean in English,16,TICKLING,http://honestcookingblog.com/soundfiles/boNyari.mp3,B,732,motyokoi,motyokoi_TICKLING,correct
55d587718ce09000057d49c7,English,NA,Guessing what Japanese words mean in English,17,TIRED,http://honestcookingblog.com/soundfiles/zoNzoN.mp3,B,1123,kutakuta,kutakuta_EXHAUSTED,incorrect
55d587718ce09000057d49c7,English,NA,Guessing what Japanese words mean in English,18,GOOEY,http://honestcookingblog.com/soundfiles/katai.mp3,A,1426,zuruNzuruN,zuruNzuruN_SLIMY,incorrect
55d587718ce09000057d49c7,English,NA,Guessing what Japanese words mean in English,19,ANNOYED,http://honestcookingblog.com/soundfiles/yakamasyii.mp3,B,1405,yakiyaki,yakiyaki_ANNOYED/IMPATIENT,incorrect
55d587718ce09000057d49c7,English,NA,Guessing what Japanese words mean in English,20,SUCK,http://honestcookingblog.com/soundfiles/tyiQtyai.mp3,B,1093,suu,suu_SUCK,correct
55d587718ce09000057d49c7,English,NA,Guessing what Japanese words mean in English,21,THROBBING (E.G. HEADACHE),http://honestcookingblog.com/soundfiles/suu.mp3,A,1121,zyiNzyiN,zyiNzyiN_POUNDING (HEAD),correct
55d587718ce09000057d49c7,English,NA,Guessing what Japanese words mean in English,22,WEARY,http://honestcookingblog.com/soundfiles/iQpai.mp3,A,4543,hetoheto,hetoheto_EXHAUSTED,incorrect
55d587718ce09000057d49c7,English,NA,Guessing what Japanese words mean in English,23,CLEAN,http://honestcookingblog.com/soundfiles/nurunuru.mp3,A,1840,kiree,kiree_CLEAN,correct
55d587718ce09000057d49c7,English,NA,Guessing what Japanese words mean in English,24,(SPINE) TINGLING,http://honestcookingblog.com/soundfiles/geNki.mp3,B,991,zoNzoN,zoNzoN_SHIVERING,correct
55d587718ce09000057d49c7,English,NA,Guessing what Japanese words mean in English,25,ENERGETIC,http://honestcookingblog.com/soundfiles/kiiN.mp3,A,1432,geNki,geNki_LIVELY,correct
55d587718ce09000057d49c7,English,NA,Guessing what Japanese words mean in English,26,FULL (FROM EATING),http://honestcookingblog.com/soundfiles/geNki.mp3,B,1948,maNpuku,maNpuku_STUFFED (FULL OF FOOD),correct
55d587718ce09000057d49c7,English,NA,Guessing what Japanese words mean in English,27,SNEAKY,http://honestcookingblog.com/soundfiles/maNpuku.mp3,A,1181,kosui,kosui_CUNNING,correct
55d587718ce09000057d49c7,English,NA,Guessing what Japanese words mean in English,28,HARD,http://honestcookingblog.com/soundfiles/yakiyaki.mp3,B,1388,katai,katai_HARD,correct
55d587718ce09000057d49c7,English,NA,Guessing what Japanese words mean in English,29,HOPPING,http://honestcookingblog.com/soundfiles/iQpai.mp3,B,1415,pyoNpyoN,pyoNpyoN_HOPPING,incorrect
55d587718ce09000057d49c7,English,NA,Guessing what Japanese words mean in English,30,WHISPERING,http://honestcookingblog.com/soundfiles/yoroyoro.mp3,B,647,hisohiso,hisohiso_WHISPERING,correct
5b54b161cba011000152e56c,english,NA,listening to japanese words and choosing what they might mean,1,WOBBLING,http://honestcookingblog.com/soundfiles/fuwafuwa.mp3,B,4717,yoroyoro,yoroyoro_WOBBLING,incorrect
5b54b161cba011000152e56c,english,NA,listening to japanese words and choosing what they might mean,2,FLUFFY,http://honestcookingblog.com/soundfiles/kyuukutsuka.mp3,A,1776,fuwafuwa,fuwafuwa_SOFT,incorrect
5b54b161cba011000152e56c,english,NA,listening to japanese words and choosing what they might mean,3,NOISY,http://honestcookingblog.com/soundfiles/zyiNzyiN.mp3,A,1308,yakamasyii,yakamasyii_NOISY,correct
5b54b161cba011000152e56c,english,NA,listening to japanese words and choosing what they might mean,4,LARGE,http://honestcookingblog.com/soundfiles/maNpuku.mp3,A,2480,ookii,ookii_BIG,incorrect
5b54b161cba011000152e56c,english,NA,listening to japanese words and choosing what they might mean,5,SLIPPERY,http://honestcookingblog.com/soundfiles/pyoNpyoN.mp3,A,2624,nurunuru,nurunuru_SLIMY,correct
5b54b161cba011000152e56c,english,NA,listening to japanese words and choosing what they might mean,6,HAZY,http://honestcookingblog.com/soundfiles/yakamasyii.mp3,B,1270,boNyari,boNyari_FUZZY,correct
5b54b161cba011000152e56c,english,NA,listening to japanese words and choosing what they might mean,7,FULL (TO THE BRIM),http://honestcookingblog.com/soundfiles/saku.mp3,B,1674,iQpai,iQpai_FULL (TO THE BRIM),incorrect
5b54b161cba011000152e56c,english,NA,listening to japanese words and choosing what they might mean,8,TEAR,http://honestcookingblog.com/soundfiles/tyiQtyai.mp3,A,1813,saku,saku_TEAR,incorrect
5b54b161cba011000152e56c,english,NA,listening to japanese words and choosing what they might mean,9,RINGING (E.G. A RINGING SOUND IN YOUR EARS),http://honestcookingblog.com/soundfiles/yoroyoro.mp3,A,1083,kiiN,kiiN_RINGING,correct
5b54b161cba011000152e56c,english,NA,listening to japanese words and choosing what they might mean,10,PINCHING,http://honestcookingblog.com/soundfiles/motyokoi.mp3,A,1460,kyuukutsuka,kyuukutsuka_TIGHT,incorrect
5b54b161cba011000152e56c,english,NA,listening to japanese words and choosing what they might mean,11,GRITTY,http://honestcookingblog.com/soundfiles/geNki.mp3,A,2920,zarazara,zarazara_ROUGH,correct
5b54b161cba011000152e56c,english,NA,listening to japanese words and choosing what they might mean,12,GOOEY,http://honestcookingblog.com/soundfiles/kiiN.mp3,A,1672,nebaneba,nebaneba_STICKY,incorrect
5b54b161cba011000152e56c,english,NA,listening to japanese words and choosing what they might mean,13,LOUD,http://honestcookingblog.com/soundfiles/semai.mp3,B,1495,yagurasyika,yagurasyika_NOISY,incorrect
5b54b161cba011000152e56c,english,NA,listening to japanese words and choosing what they might mean,14,CRAMPED,http://honestcookingblog.com/soundfiles/zarazara.mp3,B,2626,semai,semai_CRAMPED,correct
5b54b161cba011000152e56c,english,NA,listening to japanese words and choosing what they might mean,15,LITTLE,http://honestcookingblog.com/soundfiles/zarazara.mp3,A,1285,tyiQtyai,tyiQtyai_SMALL,correct
5b54b161cba011000152e56c,english,NA,listening to japanese words and choosing what they might mean,16,TICKLING,http://honestcookingblog.com/soundfiles/boNyari.mp3,A,1291,motyokoi,motyokoi_TICKLING,incorrect
5b54b161cba011000152e56c,english,NA,listening to japanese words and choosing what they might mean,17,TIRED,http://honestcookingblog.com/soundfiles/zyiNzyiN.mp3,B,1336,kutakuta,kutakuta_EXHAUSTED,incorrect
5b54b161cba011000152e56c,english,NA,listening to japanese words and choosing what they might mean,18,SLIMY,http://honestcookingblog.com/soundfiles/zyiNzyiN.mp3,B,2058,zuruNzuruN,zuruNzuruN_SLIMY,correct
5b54b161cba011000152e56c,english,NA,listening to japanese words and choosing what they might mean,19,ANNOYED,http://honestcookingblog.com/soundfiles/motyokoi.mp3,B,2193,yakiyaki,yakiyaki_ANNOYED/IMPATIENT,incorrect
5b54b161cba011000152e56c,english,NA,listening to japanese words and choosing what they might mean,20,SUCK,http://honestcookingblog.com/soundfiles/nurunuru.mp3,B,1230,suu,suu_SUCK,correct
5b54b161cba011000152e56c,english,NA,listening to japanese words and choosing what they might mean,21,POUNDING (E.G. HEADACHE),http://honestcookingblog.com/soundfiles/kutakuta.mp3,B,1968,zyiNzyiN,zyiNzyiN_POUNDING (HEAD),incorrect
5b54b161cba011000152e56c,english,NA,listening to japanese words and choosing what they might mean,22,WEARY,http://honestcookingblog.com/soundfiles/yakiyaki.mp3,B,2167,hetoheto,hetoheto_EXHAUSTED,correct
5b54b161cba011000152e56c,english,NA,listening to japanese words and choosing what they might mean,23,CLEAN,http://honestcookingblog.com/soundfiles/nurunuru.mp3,A,1159,kiree,kiree_CLEAN,correct
5b54b161cba011000152e56c,english,NA,listening to japanese words and choosing what they might mean,24,SHIVERS (DOWN YOUR SPINE),http://honestcookingblog.com/soundfiles/nebaneba.mp3,B,2701,zoNzoN,zoNzoN_SHIVERING,correct
5b54b161cba011000152e56c,english,NA,listening to japanese words and choosing what they might mean,25,LIVELY,http://honestcookingblog.com/soundfiles/saku.mp3,B,1460,geNki,geNki_LIVELY,incorrect
5b54b161cba011000152e56c,english,NA,listening to japanese words and choosing what they might mean,26,FULL (FROM EATING),http://honestcookingblog.com/soundfiles/kiree.mp3,A,2100,maNpuku,maNpuku_STUFFED (FULL OF FOOD),incorrect
5b54b161cba011000152e56c,english,NA,listening to japanese words and choosing what they might mean,27,SLY,http://honestcookingblog.com/soundfiles/hetoheto.mp3,A,1091,kosui,kosui_CUNNING,correct
5b54b161cba011000152e56c,english,NA,listening to japanese words and choosing what they might mean,28,HARD,http://honestcookingblog.com/soundfiles/nebaneba.mp3,B,2175,katai,katai_HARD,correct
5b54b161cba011000152e56c,english,NA,listening to japanese words and choosing what they might mean,29,BOUNCING,http://honestcookingblog.com/soundfiles/iQpai.mp3,A,822,pyoNpyoN,pyoNpyoN_HOPPING,correct
5b54b161cba011000152e56c,english,NA,listening to japanese words and choosing what they might mean,30,WHISPERING,http://honestcookingblog.com/soundfiles/boNyari.mp3,B,2779,hisohiso,hisohiso_WHISPERING,correct
5e49694cd35e8c3d396b58bf,English,N/A,"Guess the translation, Japanese sounds to English text",1,WOBBLING,http://honestcookingblog.com/soundfiles/zyiNzyiN.mp3,A,1449,yoroyoro,yoroyoro_WOBBLING,correct
5e49694cd35e8c3d396b58bf,English,N/A,"Guess the translation, Japanese sounds to English text",2,FLUFFY,http://honestcookingblog.com/soundfiles/zuruNzuruN.mp3,B,1326,fuwafuwa,fuwafuwa_SOFT,correct
5e49694cd35e8c3d396b58bf,English,N/A,"Guess the translation, Japanese sounds to English text",3,LOUD,http://honestcookingblog.com/soundfiles/maNpuku.mp3,B,1277,yakamasyii,yakamasyii_NOISY,incorrect
5e49694cd35e8c3d396b58bf,English,N/A,"Guess the translation, Japanese sounds to English text",4,MASSIVE,http://honestcookingblog.com/soundfiles/geNki.mp3,B,1129,ookii,ookii_BIG,correct
5e49694cd35e8c3d396b58bf,English,N/A,"Guess the translation, Japanese sounds to English text",5,SLIMY,http://honestcookingblog.com/soundfiles/kutakuta.mp3,B,854,nurunuru,nurunuru_SLIMY,incorrect
5e49694cd35e8c3d396b58bf,English,N/A,"Guess the translation, Japanese sounds to English text",6,BLURRY,http://honestcookingblog.com/soundfiles/yakiyaki.mp3,B,954,boNyari,boNyari_FUZZY,correct
5e49694cd35e8c3d396b58bf,English,N/A,"Guess the translation, Japanese sounds to English text",7,FULL (TO BURSTING),http://honestcookingblog.com/soundfiles/boNyari.mp3,A,3034,iQpai,iQpai_FULL (TO THE BRIM),correct
5e49694cd35e8c3d396b58bf,English,N/A,"Guess the translation, Japanese sounds to English text",8,RIP,http://honestcookingblog.com/soundfiles/geNki.mp3,B,1395,saku,saku_TEAR,correct
5e49694cd35e8c3d396b58bf,English,N/A,"Guess the translation, Japanese sounds to English text",9,RINGING (E.G. A RINGING SOUND IN YOUR EARS),http://honestcookingblog.com/soundfiles/pyoNpyoN.mp3,A,2365,kiiN,kiiN_RINGING,correct
5e49694cd35e8c3d396b58bf,English,N/A,"Guess the translation, Japanese sounds to English text",10,TIGHT,http://honestcookingblog.com/soundfiles/boNyari.mp3,B,2639,kyuukutsuka,kyuukutsuka_TIGHT,correct
5e49694cd35e8c3d396b58bf,English,N/A,"Guess the translation, Japanese sounds to English text",11,COARSE,http://honestcookingblog.com/soundfiles/semai.mp3,B,1035,zarazara,zarazara_ROUGH,incorrect
5e49694cd35e8c3d396b58bf,English,N/A,"Guess the translation, Japanese sounds to English text",12,GOOEY,http://honestcookingblog.com/soundfiles/ookii.mp3,B,3992,nebaneba,nebaneba_STICKY,correct
5e49694cd35e8c3d396b58bf,English,N/A,"Guess the translation, Japanese sounds to English text",13,LOUD,http://honestcookingblog.com/soundfiles/zuruNzuruN.mp3,A,2608,yagurasyika,yagurasyika_NOISY,correct
5e49694cd35e8c3d396b58bf,English,N/A,"Guess the translation, Japanese sounds to English text",14,TIGHT,http://honestcookingblog.com/soundfiles/motyokoi.mp3,B,3772,semai,semai_CRAMPED,correct
5e49694cd35e8c3d396b58bf,English,N/A,"Guess the translation, Japanese sounds to English text",15,SMALL,http://honestcookingblog.com/soundfiles/semai.mp3,A,2514,tyiQtyai,tyiQtyai_SMALL,correct
5e49694cd35e8c3d396b58bf,English,N/A,"Guess the translation, Japanese sounds to English text",16,TICKLING,http://honestcookingblog.com/soundfiles/zarazara.mp3,B,961,motyokoi,motyokoi_TICKLING,correct
5e49694cd35e8c3d396b58bf,English,N/A,"Guess the translation, Japanese sounds to English text",17,EXHAUSTED,http://honestcookingblog.com/soundfiles/kyuukutsuka.mp3,A,1606,kutakuta,kutakuta_EXHAUSTED,correct
5e49694cd35e8c3d396b58bf,English,N/A,"Guess the translation, Japanese sounds to English text",18,SLIMY,http://honestcookingblog.com/soundfiles/kyuukutsuka.mp3,B,1275,zuruNzuruN,zuruNzuruN_SLIMY,correct
5e49694cd35e8c3d396b58bf,English,N/A,"Guess the translation, Japanese sounds to English text",19,IMPATIENT,http://honestcookingblog.com/soundfiles/yakamasyii.mp3,B,946,yakiyaki,yakiyaki_ANNOYED/IMPATIENT,incorrect
5e49694cd35e8c3d396b58bf,English,N/A,"Guess the translation, Japanese sounds to English text",20,SUCK,http://honestcookingblog.com/soundfiles/katai.mp3,B,3127,suu,suu_SUCK,correct
5e49694cd35e8c3d396b58bf,English,N/A,"Guess the translation, Japanese sounds to English text",21,POUNDING (E.G. HEADACHE),http://honestcookingblog.com/soundfiles/yagurasyika.mp3,B,3595,zyiNzyiN,zyiNzyiN_POUNDING (HEAD),incorrect
5e49694cd35e8c3d396b58bf,English,N/A,"Guess the translation, Japanese sounds to English text",22,EXHAUSTED,http://honestcookingblog.com/soundfiles/boNyari.mp3,A,1383,hetoheto,hetoheto_EXHAUSTED,incorrect
5e49694cd35e8c3d396b58bf,English,N/A,"Guess the translation, Japanese sounds to English text",23,CLEAN,http://honestcookingblog.com/soundfiles/kutakuta.mp3,A,3245,kiree,kiree_CLEAN,correct
5e49694cd35e8c3d396b58bf,English,N/A,"Guess the translation, Japanese sounds to English text",24,(SPINE) TINGLING,http://honestcookingblog.com/soundfiles/kosui.mp3,B,1090,zoNzoN,zoNzoN_SHIVERING,correct
5e49694cd35e8c3d396b58bf,English,N/A,"Guess the translation, Japanese sounds to English text",25,ENERGETIC,http://honestcookingblog.com/soundfiles/kyuukutsuka.mp3,B,1002,geNki,geNki_LIVELY,incorrect
5e49694cd35e8c3d396b58bf,English,N/A,"Guess the translation, Japanese sounds to English text",26,FULL (FROM EATING),http://honestcookingblog.com/soundfiles/boNyari.mp3,A,2405,maNpuku,maNpuku_STUFFED (FULL OF FOOD),incorrect
5e49694cd35e8c3d396b58bf,English,N/A,"Guess the translation, Japanese sounds to English text",27,SNEAKY,http://honestcookingblog.com/soundfiles/zuruNzuruN.mp3,A,1063,kosui,kosui_CUNNING,correct
5e49694cd35e8c3d396b58bf,English,N/A,"Guess the translation, Japanese sounds to English text",28,HARD,http://honestcookingblog.com/soundfiles/yagurasyika.mp3,A,1411,katai,katai_HARD,incorrect
5e49694cd35e8c3d396b58bf,English,N/A,"Guess the translation, Japanese sounds to English text",29,HOPPING,http://honestcookingblog.com/soundfiles/kutakuta.mp3,B,1476,pyoNpyoN,pyoNpyoN_HOPPING,incorrect
5e49694cd35e8c3d396b58bf,English,N/A,"Guess the translation, Japanese sounds to English text",30,WHISPERING,http://honestcookingblog.com/soundfiles/kosui.mp3,B,1384,hisohiso,hisohiso_WHISPERING,correct
60dd6f413bd206c96f649835,en_uk,N/A,Deciphering Japenese words,1,WOBBLING,http://honestcookingblog.com/soundfiles/hetoheto.mp3,B,2298,yoroyoro,yoroyoro_WOBBLING,incorrect
60dd6f413bd206c96f649835,en_uk,N/A,Deciphering Japenese words,2,FLUFFY,http://honestcookingblog.com/soundfiles/yakamasyii.mp3,B,2218,fuwafuwa,fuwafuwa_SOFT,correct
60dd6f413bd206c96f649835,en_uk,N/A,Deciphering Japenese words,3,NOISY,http://honestcookingblog.com/soundfiles/tyiQtyai.mp3,B,859,yakamasyii,yakamasyii_NOISY,incorrect
60dd6f413bd206c96f649835,en_uk,N/A,Deciphering Japenese words,4,MASSIVE,http://honestcookingblog.com/soundfiles/hetoheto.mp3,B,901,ookii,ookii_BIG,correct
60dd6f413bd206c96f649835,en_uk,N/A,Deciphering Japenese words,5,SLICK,http://honestcookingblog.com/soundfiles/kiree.mp3,B,1219,nurunuru,nurunuru_SLIMY,incorrect
60dd6f413bd206c96f649835,en_uk,N/A,Deciphering Japenese words,6,BLURRY,http://honestcookingblog.com/soundfiles/saku.mp3,B,1576,boNyari,boNyari_FUZZY,correct
60dd6f413bd206c96f649835,en_uk,N/A,Deciphering Japenese words,7,FULL (TO THE BRIM),http://honestcookingblog.com/soundfiles/kiiN.mp3,B,797,iQpai,iQpai_FULL (TO THE BRIM),incorrect
60dd6f413bd206c96f649835,en_uk,N/A,Deciphering Japenese words,8,TEAR,http://honestcookingblog.com/soundfiles/ookii.mp3,B,1056,saku,saku_TEAR,correct
60dd6f413bd206c96f649835,en_uk,N/A,Deciphering Japenese words,9,RINGING (E.G. A RINGING SOUND IN YOUR EARS),http://honestcookingblog.com/soundfiles/semai.mp3,B,963,kiiN,kiiN_RINGING,incorrect
60dd6f413bd206c96f649835,en_uk,N/A,Deciphering Japenese words,10,TIGHT,http://honestcookingblog.com/soundfiles/nebaneba.mp3,B,941,kyuukutsuka,kyuukutsuka_TIGHT,correct
60dd6f413bd206c96f649835,en_uk,N/A,Deciphering Japenese words,11,GRITTY,http://honestcookingblog.com/soundfiles/geNki.mp3,B,1200,zarazara,zarazara_ROUGH,incorrect
60dd6f413bd206c96f649835,en_uk,N/A,Deciphering Japenese words,12,GOOEY,http://honestcookingblog.com/soundfiles/fuwafuwa.mp3,A,1610,nebaneba,nebaneba_STICKY,incorrect
60dd6f413bd206c96f649835,en_uk,N/A,Deciphering Japenese words,13,NOISY,http://honestcookingblog.com/soundfiles/iQpai.mp3,B,997,yagurasyika,yagurasyika_NOISY,incorrect
60dd6f413bd206c96f649835,en_uk,N/A,Deciphering Japenese words,14,CRAMPED,http://honestcookingblog.com/soundfiles/zoNzoN.mp3,A,1434,semai,semai_CRAMPED,incorrect
60dd6f413bd206c96f649835,en_uk,N/A,Deciphering Japenese words,15,TINY,http://honestcookingblog.com/soundfiles/geNki.mp3,B,993,tyiQtyai,tyiQtyai_SMALL,incorrect
60dd6f413bd206c96f649835,en_uk,N/A,Deciphering Japenese words,16,TICKLING,http://honestcookingblog.com/soundfiles/katai.mp3,B,1972,motyokoi,motyokoi_TICKLING,correct
60dd6f413bd206c96f649835,en_uk,N/A,Deciphering Japenese words,17,WEARY,http://honestcookingblog.com/soundfiles/zarazara.mp3,A,3039,kutakuta,kutakuta_EXHAUSTED,correct
60dd6f413bd206c96f649835,en_uk,N/A,Deciphering Japenese words,18,GOOEY,http://honestcookingblog.com/soundfiles/yakamasyii.mp3,B,841,zuruNzuruN,zuruNzuruN_SLIMY,correct
60dd6f413bd206c96f649835,en_uk,N/A,Deciphering Japenese words,19,ANNOYED,http://honestcookingblog.com/soundfiles/zuruNzuruN.mp3,B,952,yakiyaki,yakiyaki_ANNOYED/IMPATIENT,incorrect
60dd6f413bd206c96f649835,en_uk,N/A,Deciphering Japenese words,20,SUCK,http://honestcookingblog.com/soundfiles/hetoheto.mp3,B,961,suu,suu_SUCK,correct
60dd6f413bd206c96f649835,en_uk,N/A,Deciphering Japenese words,21,POUNDING (E.G. HEADACHE),http://honestcookingblog.com/soundfiles/hisohiso.mp3,A,2959,zyiNzyiN,zyiNzyiN_POUNDING (HEAD),correct
60dd6f413bd206c96f649835,en_uk,N/A,Deciphering Japenese words,22,WEARY,http://honestcookingblog.com/soundfiles/tyiQtyai.mp3,B,838,hetoheto,hetoheto_EXHAUSTED,correct
60dd6f413bd206c96f649835,en_uk,N/A,Deciphering Japenese words,23,CLEAN,http://honestcookingblog.com/soundfiles/yoroyoro.mp3,A,1312,kiree,kiree_CLEAN,correct
60dd6f413bd206c96f649835,en_uk,N/A,Deciphering Japenese words,24,SHIVERS (DOWN YOUR SPINE),http://honestcookingblog.com/soundfiles/yakamasyii.mp3,A,1987,zoNzoN,zoNzoN_SHIVERING,incorrect
60dd6f413bd206c96f649835,en_uk,N/A,Deciphering Japenese words,25,ENERGETIC,http://honestcookingblog.com/soundfiles/tyiQtyai.mp3,B,1033,geNki,geNki_LIVELY,incorrect
60dd6f413bd206c96f649835,en_uk,N/A,Deciphering Japenese words,26,FULL (FROM EATING),http://honestcookingblog.com/soundfiles/zyiNzyiN.mp3,B,1792,maNpuku,maNpuku_STUFFED (FULL OF FOOD),correct
60dd6f413bd206c96f649835,en_uk,N/A,Deciphering Japenese words,27,SLY,http://honestcookingblog.com/soundfiles/yoroyoro.mp3,A,768,kosui,kosui_CUNNING,correct
60dd6f413bd206c96f649835,en_uk,N/A,Deciphering Japenese words,28,HARD,http://honestcookingblog.com/soundfiles/zoNzoN.mp3,B,1728,katai,katai_HARD,correct
60dd6f413bd206c96f649835,en_uk,N/A,Deciphering Japenese words,29,BOUNCING,http://honestcookingblog.com/soundfiles/yakamasyii.mp3,A,2122,pyoNpyoN,pyoNpyoN_HOPPING,correct
60dd6f413bd206c96f649835,en_uk,N/A,Deciphering Japenese words,30,WHISPERING,http://honestcookingblog.com/soundfiles/kutakuta.mp3,A,914,hisohiso,hisohiso_WHISPERING,incorrect
60e1ffd2793a69be2406b5f6,English,None,Listening to Japanese words and trying to translate them into English,1,WOBBLING,http://honestcookingblog.com/soundfiles/kosui.mp3,A,2399,yoroyoro,yoroyoro_WOBBLING,correct
60e1ffd2793a69be2406b5f6,English,None,Listening to Japanese words and trying to translate them into English,2,FLUFFY,http://honestcookingblog.com/soundfiles/hisohiso.mp3,B,2272,fuwafuwa,fuwafuwa_SOFT,correct
60e1ffd2793a69be2406b5f6,English,None,Listening to Japanese words and trying to translate them into English,3,LOUD,http://honestcookingblog.com/soundfiles/ookii.mp3,A,1685,yakamasyii,yakamasyii_NOISY,correct
60e1ffd2793a69be2406b5f6,English,None,Listening to Japanese words and trying to translate them into English,4,MASSIVE,http://honestcookingblog.com/soundfiles/yakamasyii.mp3,B,1605,ookii,ookii_BIG,correct
60e1ffd2793a69be2406b5f6,English,None,Listening to Japanese words and trying to translate them into English,5,SLIPPERY,http://honestcookingblog.com/soundfiles/yakiyaki.mp3,A,1134,nurunuru,nurunuru_SLIMY,correct
60e1ffd2793a69be2406b5f6,English,None,Listening to Japanese words and trying to translate them into English,6,BLURRY,http://honestcookingblog.com/soundfiles/suu.mp3,B,1698,boNyari,boNyari_FUZZY,correct
60e1ffd2793a69be2406b5f6,English,None,Listening to Japanese words and trying to translate them into English,7,FULL (TO THE BRIM),http://honestcookingblog.com/soundfiles/yakiyaki.mp3,B,1854,iQpai,iQpai_FULL (TO THE BRIM),incorrect
60e1ffd2793a69be2406b5f6,English,None,Listening to Japanese words and trying to translate them into English,8,RIP,http://honestcookingblog.com/soundfiles/suu.mp3,A,1656,saku,saku_TEAR,incorrect
60e1ffd2793a69be2406b5f6,English,None,Listening to Japanese words and trying to translate them into English,9,RINGING (E.G. A RINGING SOUND IN YOUR EARS),http://honestcookingblog.com/soundfiles/kutakuta.mp3,A,1873,kiiN,kiiN_RINGING,correct
60e1ffd2793a69be2406b5f6,English,None,Listening to Japanese words and trying to translate them into English,10,TIGHT,http://honestcookingblog.com/soundfiles/zyiNzyiN.mp3,B,4004,kyuukutsuka,kyuukutsuka_TIGHT,correct
60e1ffd2793a69be2406b5f6,English,None,Listening to Japanese words and trying to translate them into English,11,COARSE,http://honestcookingblog.com/soundfiles/semai.mp3,B,2430,zarazara,zarazara_ROUGH,incorrect
60e1ffd2793a69be2406b5f6,English,None,Listening to Japanese words and trying to translate them into English,12,GOOEY,http://honestcookingblog.com/soundfiles/kiiN.mp3,A,3286,nebaneba,nebaneba_STICKY,incorrect
60e1ffd2793a69be2406b5f6,English,None,Listening to Japanese words and trying to translate them into English,13,LOUD,http://honestcookingblog.com/soundfiles/iQpai.mp3,B,1827,yagurasyika,yagurasyika_NOISY,incorrect
60e1ffd2793a69be2406b5f6,English,None,Listening to Japanese words and trying to translate them into English,14,TIGHT,http://honestcookingblog.com/soundfiles/zoNzoN.mp3,A,1187,semai,semai_CRAMPED,incorrect
60e1ffd2793a69be2406b5f6,English,None,Listening to Japanese words and trying to translate them into English,15,SMALL,http://honestcookingblog.com/soundfiles/geNki.mp3,A,1879,tyiQtyai,tyiQtyai_SMALL,correct
60e1ffd2793a69be2406b5f6,English,None,Listening to Japanese words and trying to translate them into English,16,TICKLING,http://honestcookingblog.com/soundfiles/zuruNzuruN.mp3,B,2148,motyokoi,motyokoi_TICKLING,correct
60e1ffd2793a69be2406b5f6,English,None,Listening to Japanese words and trying to translate them into English,17,EXHAUSTED,http://honestcookingblog.com/soundfiles/maNpuku.mp3,A,1962,kutakuta,kutakuta_EXHAUSTED,correct
60e1ffd2793a69be2406b5f6,English,None,Listening to Japanese words and trying to translate them into English,18,SLIMY,http://honestcookingblog.com/soundfiles/zyiNzyiN.mp3,B,1072,zuruNzuruN,zuruNzuruN_SLIMY,correct
60e1ffd2793a69be2406b5f6,English,None,Listening to Japanese words and trying to translate them into English,19,ANNOYED,http://honestcookingblog.com/soundfiles/nebaneba.mp3,A,1338,yakiyaki,yakiyaki_ANNOYED/IMPATIENT,correct
60e1ffd2793a69be2406b5f6,English,None,Listening to Japanese words and trying to translate them into English,20,SUCK,http://honestcookingblog.com/soundfiles/yagurasyika.mp3,A,1827,suu,suu_SUCK,incorrect
60e1ffd2793a69be2406b5f6,English,None,Listening to Japanese words and trying to translate them into English,21,POUNDING (E.G. HEADACHE),http://honestcookingblog.com/soundfiles/iQpai.mp3,A,4276,zyiNzyiN,zyiNzyiN_POUNDING (HEAD),correct
60e1ffd2793a69be2406b5f6,English,None,Listening to Japanese words and trying to translate them into English,22,TIRED,http://honestcookingblog.com/soundfiles/yakiyaki.mp3,B,1883,hetoheto,hetoheto_EXHAUSTED,correct
60e1ffd2793a69be2406b5f6,English,None,Listening to Japanese words and trying to translate them into English,23,TIDY,http://honestcookingblog.com/soundfiles/nebaneba.mp3,A,945,kiree,kiree_CLEAN,correct
60e1ffd2793a69be2406b5f6,English,None,Listening to Japanese words and trying to translate them into English,24,SHIVERS (DOWN YOUR SPINE),http://honestcookingblog.com/soundfiles/iQpai.mp3,B,1251,zoNzoN,zoNzoN_SHIVERING,correct
60e1ffd2793a69be2406b5f6,English,None,Listening to Japanese words and trying to translate them into English,25,ENERGETIC,http://honestcookingblog.com/soundfiles/yakamasyii.mp3,A,1996,geNki,geNki_LIVELY,correct
60e1ffd2793a69be2406b5f6,English,None,Listening to Japanese words and trying to translate them into English,26,STUFFED (FROM EATING TOO MUCH),http://honestcookingblog.com/soundfiles/iQpai.mp3,A,2971,maNpuku,maNpuku_STUFFED (FULL OF FOOD),incorrect
60e1ffd2793a69be2406b5f6,English,None,Listening to Japanese words and trying to translate them into English,27,CUNNING,http://honestcookingblog.com/soundfiles/zyiNzyiN.mp3,B,1546,kosui,kosui_CUNNING,incorrect
60e1ffd2793a69be2406b5f6,English,None,Listening to Japanese words and trying to translate them into English,28,HARD,http://honestcookingblog.com/soundfiles/suu.mp3,B,1209,katai,katai_HARD,correct
60e1ffd2793a69be2406b5f6,English,None,Listening to Japanese words and trying to translate them into English,29,BOUNCING,http://honestcookingblog.com/soundfiles/yakamasyii.mp3,B,2477,pyoNpyoN,pyoNpyoN_HOPPING,incorrect
60e1ffd2793a69be2406b5f6,English,None,Listening to Japanese words and trying to translate them into English,30,WHISPERING,http://honestcookingblog.com/soundfiles/fuwafuwa.mp3,B,2710,hisohiso,hisohiso_WHISPERING,correct
60db167759020ccdbe5ea743,english,none,Word guessing,1,WOBBLING,http://honestcookingblog.com/soundfiles/hetoheto.mp3,B,13769,yoroyoro,yoroyoro_WOBBLING,incorrect
60db167759020ccdbe5ea743,english,none,Word guessing,2,FLUFFY,http://honestcookingblog.com/soundfiles/suu.mp3,A,8944,fuwafuwa,fuwafuwa_SOFT,incorrect
60db167759020ccdbe5ea743,english,none,Word guessing,3,LOUD,http://honestcookingblog.com/soundfiles/boNyari.mp3,A,10090,yakamasyii,yakamasyii_NOISY,correct
60db167759020ccdbe5ea743,english,none,Word guessing,4,BIG,http://honestcookingblog.com/soundfiles/zarazara.mp3,B,6102,ookii,ookii_BIG,correct
60db167759020ccdbe5ea743,english,none,Word guessing,5,SLIPPERY,http://honestcookingblog.com/soundfiles/yoroyoro.mp3,A,2357,nurunuru,nurunuru_SLIMY,correct
60db167759020ccdbe5ea743,english,none,Word guessing,6,FUZZY,http://honestcookingblog.com/soundfiles/tyiQtyai.mp3,B,5046,boNyari,boNyari_FUZZY,correct
60db167759020ccdbe5ea743,english,none,Word guessing,7,FULL (TO BURSTING),http://honestcookingblog.com/soundfiles/fuwafuwa.mp3,A,2318,iQpai,iQpai_FULL (TO THE BRIM),correct
60db167759020ccdbe5ea743,english,none,Word guessing,8,RIP,http://honestcookingblog.com/soundfiles/yakiyaki.mp3,B,2473,saku,saku_TEAR,correct
60db167759020ccdbe5ea743,english,none,Word guessing,9,RINGING (E.G. A RINGING SOUND IN YOUR EARS),http://honestcookingblog.com/soundfiles/iQpai.mp3,B,7561,kiiN,kiiN_RINGING,incorrect
60db167759020ccdbe5ea743,english,none,Word guessing,10,TIGHT,http://honestcookingblog.com/soundfiles/motyokoi.mp3,B,826,kyuukutsuka,kyuukutsuka_TIGHT,correct
60db167759020ccdbe5ea743,english,none,Word guessing,11,ROUGH,http://honestcookingblog.com/soundfiles/zoNzoN.mp3,B,1562,zarazara,zarazara_ROUGH,incorrect
60db167759020ccdbe5ea743,english,none,Word guessing,12,STICKY,http://honestcookingblog.com/soundfiles/zyiNzyiN.mp3,A,5762,nebaneba,nebaneba_STICKY,incorrect
60db167759020ccdbe5ea743,english,none,Word guessing,13,LOUD,http://honestcookingblog.com/soundfiles/suu.mp3,B,2802,yagurasyika,yagurasyika_NOISY,incorrect
60db167759020ccdbe5ea743,english,none,Word guessing,14,CRAMPED,http://honestcookingblog.com/soundfiles/yoroyoro.mp3,B,1606,semai,semai_CRAMPED,correct
60db167759020ccdbe5ea743,english,none,Word guessing,15,SMALL,http://honestcookingblog.com/soundfiles/pyoNpyoN.mp3,B,5722,tyiQtyai,tyiQtyai_SMALL,incorrect
60db167759020ccdbe5ea743,english,none,Word guessing,16,TICKLING,http://honestcookingblog.com/soundfiles/kyuukutsuka.mp3,A,5542,motyokoi,motyokoi_TICKLING,incorrect
60db167759020ccdbe5ea743,english,none,Word guessing,17,TIRED,http://honestcookingblog.com/soundfiles/kiiN.mp3,B,1309,kutakuta,kutakuta_EXHAUSTED,incorrect
60db167759020ccdbe5ea743,english,none,Word guessing,18,SLIMY,http://honestcookingblog.com/soundfiles/fuwafuwa.mp3,B,1229,zuruNzuruN,zuruNzuruN_SLIMY,correct
60db167759020ccdbe5ea743,english,none,Word guessing,19,IMPATIENT,http://honestcookingblog.com/soundfiles/tyiQtyai.mp3,B,1587,yakiyaki,yakiyaki_ANNOYED/IMPATIENT,incorrect
60db167759020ccdbe5ea743,english,none,Word guessing,20,SUCK,http://honestcookingblog.com/soundfiles/nurunuru.mp3,B,1693,suu,suu_SUCK,correct
60db167759020ccdbe5ea743,english,none,Word guessing,21,POUNDING (E.G. HEADACHE),http://honestcookingblog.com/soundfiles/kiree.mp3,B,2233,zyiNzyiN,zyiNzyiN_POUNDING (HEAD),incorrect
60db167759020ccdbe5ea743,english,none,Word guessing,22,EXHAUSTED,http://honestcookingblog.com/soundfiles/ookii.mp3,A,4818,hetoheto,hetoheto_EXHAUSTED,incorrect
60db167759020ccdbe5ea743,english,none,Word guessing,23,CLEAN,http://honestcookingblog.com/soundfiles/saku.mp3,B,1646,kiree,kiree_CLEAN,incorrect
60db167759020ccdbe5ea743,english,none,Word guessing,24,SHIVERS (DOWN YOUR SPINE),http://honestcookingblog.com/soundfiles/boNyari.mp3,A,3025,zoNzoN,zoNzoN_SHIVERING,incorrect
60db167759020ccdbe5ea743,english,none,Word guessing,25,ENERGETIC,http://honestcookingblog.com/soundfiles/boNyari.mp3,A,1801,geNki,geNki_LIVELY,correct
60db167759020ccdbe5ea743,english,none,Word guessing,26,STUFFED (FROM EATING TOO MUCH),http://honestcookingblog.com/soundfiles/zoNzoN.mp3,B,3234,maNpuku,maNpuku_STUFFED (FULL OF FOOD),correct
60db167759020ccdbe5ea743,english,none,Word guessing,27,CUNNING,http://honestcookingblog.com/soundfiles/kutakuta.mp3,A,7044,kosui,kosui_CUNNING,correct
60db167759020ccdbe5ea743,english,none,Word guessing,28,HARD,http://honestcookingblog.com/soundfiles/yoroyoro.mp3,B,1222,katai,katai_HARD,correct
60db167759020ccdbe5ea743,english,none,Word guessing,29,HOPPING,http://honestcookingblog.com/soundfiles/yagurasyika.mp3,B,1510,pyoNpyoN,pyoNpyoN_HOPPING,incorrect
60db167759020ccdbe5ea743,english,none,Word guessing,30,WHISPERING,http://honestcookingblog.com/soundfiles/yoroyoro.mp3,B,1326,hisohiso,hisohiso_WHISPERING,correct
5f11e2a8816c550d41f2c18d,English,"Some German, some French",Identifying Japanese words and meanings,1,WOBBLING,http://honestcookingblog.com/soundfiles/hisohiso.mp3,A,6385,yoroyoro,yoroyoro_WOBBLING,correct
5f11e2a8816c550d41f2c18d,English,"Some German, some French",Identifying Japanese words and meanings,2,FLUFFY,http://honestcookingblog.com/soundfiles/suu.mp3,A,12474,fuwafuwa,fuwafuwa_SOFT,incorrect
5f11e2a8816c550d41f2c18d,English,"Some German, some French",Identifying Japanese words and meanings,3,NOISY,http://honestcookingblog.com/soundfiles/semai.mp3,B,3000,yakamasyii,yakamasyii_NOISY,incorrect
5f11e2a8816c550d41f2c18d,English,"Some German, some French",Identifying Japanese words and meanings,4,BIG,http://honestcookingblog.com/soundfiles/iQpai.mp3,A,1523,ookii,ookii_BIG,incorrect
5f11e2a8816c550d41f2c18d,English,"Some German, some French",Identifying Japanese words and meanings,5,SLIPPERY,http://honestcookingblog.com/soundfiles/zyiNzyiN.mp3,A,1310,nurunuru,nurunuru_SLIMY,correct
5f11e2a8816c550d41f2c18d,English,"Some German, some French",Identifying Japanese words and meanings,6,HAZY,http://honestcookingblog.com/soundfiles/tyiQtyai.mp3,B,950,boNyari,boNyari_FUZZY,correct
5f11e2a8816c550d41f2c18d,English,"Some German, some French",Identifying Japanese words and meanings,7,FULL (TO THE BRIM),http://honestcookingblog.com/soundfiles/semai.mp3,B,1667,iQpai,iQpai_FULL (TO THE BRIM),incorrect
5f11e2a8816c550d41f2c18d,English,"Some German, some French",Identifying Japanese words and meanings,8,RIP,http://honestcookingblog.com/soundfiles/zoNzoN.mp3,B,689,saku,saku_TEAR,correct
5f11e2a8816c550d41f2c18d,English,"Some German, some French",Identifying Japanese words and meanings,9,RINGING (E.G. A RINGING SOUND IN YOUR EARS),http://honestcookingblog.com/soundfiles/kosui.mp3,B,4327,kiiN,kiiN_RINGING,incorrect
5f11e2a8816c550d41f2c18d,English,"Some German, some French",Identifying Japanese words and meanings,10,TIGHT,http://honestcookingblog.com/soundfiles/zuruNzuruN.mp3,B,1412,kyuukutsuka,kyuukutsuka_TIGHT,correct
5f11e2a8816c550d41f2c18d,English,"Some German, some French",Identifying Japanese words and meanings,11,COARSE,http://honestcookingblog.com/soundfiles/fuwafuwa.mp3,A,868,zarazara,zarazara_ROUGH,correct
5f11e2a8816c550d41f2c18d,English,"Some German, some French",Identifying Japanese words and meanings,12,GOOEY,http://honestcookingblog.com/soundfiles/semai.mp3,A,2382,nebaneba,nebaneba_STICKY,incorrect
5f11e2a8816c550d41f2c18d,English,"Some German, some French",Identifying Japanese words and meanings,13,NOISY,http://honestcookingblog.com/soundfiles/kyuukutsuka.mp3,A,6602,yagurasyika,yagurasyika_NOISY,correct
5f11e2a8816c550d41f2c18d,English,"Some German, some French",Identifying Japanese words and meanings,14,TIGHT,http://honestcookingblog.com/soundfiles/boNyari.mp3,B,4106,semai,semai_CRAMPED,correct
5f11e2a8816c550d41f2c18d,English,"Some German, some French",Identifying Japanese words and meanings,15,TINY,http://honestcookingblog.com/soundfiles/zarazara.mp3,A,1233,tyiQtyai,tyiQtyai_SMALL,correct
5f11e2a8816c550d41f2c18d,English,"Some German, some French",Identifying Japanese words and meanings,16,TICKLING,http://honestcookingblog.com/soundfiles/suu.mp3,B,740,motyokoi,motyokoi_TICKLING,correct
5f11e2a8816c550d41f2c18d,English,"Some German, some French",Identifying Japanese words and meanings,17,WEARY,http://honestcookingblog.com/soundfiles/yagurasyika.mp3,B,1107,kutakuta,kutakuta_EXHAUSTED,incorrect
5f11e2a8816c550d41f2c18d,English,"Some German, some French",Identifying Japanese words and meanings,18,SLIMY,http://honestcookingblog.com/soundfiles/zoNzoN.mp3,B,2092,zuruNzuruN,zuruNzuruN_SLIMY,correct
5f11e2a8816c550d41f2c18d,English,"Some German, some French",Identifying Japanese words and meanings,19,ANNOYED,http://honestcookingblog.com/soundfiles/katai.mp3,B,1229,yakiyaki,yakiyaki_ANNOYED/IMPATIENT,incorrect
5f11e2a8816c550d41f2c18d,English,"Some German, some French",Identifying Japanese words and meanings,20,SUCK,http://honestcookingblog.com/soundfiles/tyiQtyai.mp3,A,2690,suu,suu_SUCK,incorrect
5f11e2a8816c550d41f2c18d,English,"Some German, some French",Identifying Japanese words and meanings,21,THROBBING (E.G. HEADACHE),http://honestcookingblog.com/soundfiles/tyiQtyai.mp3,B,1170,zyiNzyiN,zyiNzyiN_POUNDING (HEAD),incorrect
5f11e2a8816c550d41f2c18d,English,"Some German, some French",Identifying Japanese words and meanings,22,TIRED,http://honestcookingblog.com/soundfiles/fuwafuwa.mp3,B,5389,hetoheto,hetoheto_EXHAUSTED,correct
5f11e2a8816c550d41f2c18d,English,"Some German, some French",Identifying Japanese words and meanings,23,CLEAN,http://honestcookingblog.com/soundfiles/iQpai.mp3,A,1399,kiree,kiree_CLEAN,correct
5f11e2a8816c550d41f2c18d,English,"Some German, some French",Identifying Japanese words and meanings,24,(SPINE) TINGLING,http://honestcookingblog.com/soundfiles/zarazara.mp3,A,2173,zoNzoN,zoNzoN_SHIVERING,incorrect
5f11e2a8816c550d41f2c18d,English,"Some German, some French",Identifying Japanese words and meanings,25,ENERGETIC,http://honestcookingblog.com/soundfiles/kiree.mp3,A,983,geNki,geNki_LIVELY,correct
5f11e2a8816c550d41f2c18d,English,"Some German, some French",Identifying Japanese words and meanings,26,FULL (FROM EATING),http://honestcookingblog.com/soundfiles/kyuukutsuka.mp3,B,2238,maNpuku,maNpuku_STUFFED (FULL OF FOOD),correct
5f11e2a8816c550d41f2c18d,English,"Some German, some French",Identifying Japanese words and meanings,27,SLY,http://honestcookingblog.com/soundfiles/nurunuru.mp3,A,3185,kosui,kosui_CUNNING,correct
5f11e2a8816c550d41f2c18d,English,"Some German, some French",Identifying Japanese words and meanings,28,HARD,http://honestcookingblog.com/soundfiles/semai.mp3,B,1071,katai,katai_HARD,correct
5f11e2a8816c550d41f2c18d,English,"Some German, some French",Identifying Japanese words and meanings,29,HOPPING,http://honestcookingblog.com/soundfiles/boNyari.mp3,A,1239,pyoNpyoN,pyoNpyoN_HOPPING,correct
5f11e2a8816c550d41f2c18d,English,"Some German, some French",Identifying Japanese words and meanings,30,WHISPERING,http://honestcookingblog.com/soundfiles/kutakuta.mp3,A,3364,hisohiso,hisohiso_WHISPERING,incorrect
60ddb84386eb83559f02534c,english,english,linguistics? listening,1,WOBBLING,http://honestcookingblog.com/soundfiles/zarazara.mp3,A,2872,yoroyoro,yoroyoro_WOBBLING,correct
60ddb84386eb83559f02534c,english,english,linguistics? listening,2,FLUFFY,http://honestcookingblog.com/soundfiles/kosui.mp3,A,1306,fuwafuwa,fuwafuwa_SOFT,incorrect
60ddb84386eb83559f02534c,english,english,linguistics? listening,3,LOUD,http://honestcookingblog.com/soundfiles/saku.mp3,B,819,yakamasyii,yakamasyii_NOISY,incorrect
60ddb84386eb83559f02534c,english,english,linguistics? listening,4,BIG,http://honestcookingblog.com/soundfiles/kiiN.mp3,A,965,ookii,ookii_BIG,incorrect
60ddb84386eb83559f02534c,english,english,linguistics? listening,5,SLIMY,http://honestcookingblog.com/soundfiles/kosui.mp3,A,1243,nurunuru,nurunuru_SLIMY,correct
60ddb84386eb83559f02534c,english,english,linguistics? listening,6,FUZZY,http://honestcookingblog.com/soundfiles/kutakuta.mp3,A,1775,boNyari,boNyari_FUZZY,incorrect
60ddb84386eb83559f02534c,english,english,linguistics? listening,7,FULL (TO BURSTING),http://honestcookingblog.com/soundfiles/suu.mp3,A,1311,iQpai,iQpai_FULL (TO THE BRIM),correct
60ddb84386eb83559f02534c,english,english,linguistics? listening,8,TEAR,http://honestcookingblog.com/soundfiles/kutakuta.mp3,B,1329,saku,saku_TEAR,correct
60ddb84386eb83559f02534c,english,english,linguistics? listening,9,RINGING (E.G. A RINGING SOUND IN YOUR EARS),http://honestcookingblog.com/soundfiles/suu.mp3,B,1041,kiiN,kiiN_RINGING,incorrect
60ddb84386eb83559f02534c,english,english,linguistics? listening,10,TIGHT,http://honestcookingblog.com/soundfiles/hisohiso.mp3,B,796,kyuukutsuka,kyuukutsuka_TIGHT,correct
60ddb84386eb83559f02534c,english,english,linguistics? listening,11,GRITTY,http://honestcookingblog.com/soundfiles/zuruNzuruN.mp3,B,1332,zarazara,zarazara_ROUGH,incorrect
60ddb84386eb83559f02534c,english,english,linguistics? listening,12,STICKY,http://honestcookingblog.com/soundfiles/fuwafuwa.mp3,B,930,nebaneba,nebaneba_STICKY,correct
60ddb84386eb83559f02534c,english,english,linguistics? listening,13,NOISY,http://honestcookingblog.com/soundfiles/zoNzoN.mp3,B,2129,yagurasyika,yagurasyika_NOISY,incorrect
60ddb84386eb83559f02534c,english,english,linguistics? listening,14,TIGHT,http://honestcookingblog.com/soundfiles/maNpuku.mp3,B,1049,semai,semai_CRAMPED,correct
60ddb84386eb83559f02534c,english,english,linguistics? listening,15,TINY,http://honestcookingblog.com/soundfiles/kiiN.mp3,B,1080,tyiQtyai,tyiQtyai_SMALL,incorrect
60ddb84386eb83559f02534c,english,english,linguistics? listening,16,TICKLING,http://honestcookingblog.com/soundfiles/tyiQtyai.mp3,B,1843,motyokoi,motyokoi_TICKLING,correct
60ddb84386eb83559f02534c,english,english,linguistics? listening,17,EXHAUSTED,http://honestcookingblog.com/soundfiles/iQpai.mp3,A,1195,kutakuta,kutakuta_EXHAUSTED,correct
60ddb84386eb83559f02534c,english,english,linguistics? listening,18,GOOEY,http://honestcookingblog.com/soundfiles/iQpai.mp3,B,877,zuruNzuruN,zuruNzuruN_SLIMY,correct
60ddb84386eb83559f02534c,english,english,linguistics? listening,19,IMPATIENT,http://honestcookingblog.com/soundfiles/geNki.mp3,A,1174,yakiyaki,yakiyaki_ANNOYED/IMPATIENT,correct
60ddb84386eb83559f02534c,english,english,linguistics? listening,20,SUCK,http://honestcookingblog.com/soundfiles/zoNzoN.mp3,A,1205,suu,suu_SUCK,incorrect
60ddb84386eb83559f02534c,english,english,linguistics? listening,21,THROBBING (E.G. HEADACHE),http://honestcookingblog.com/soundfiles/saku.mp3,B,959,zyiNzyiN,zyiNzyiN_POUNDING (HEAD),incorrect
60ddb84386eb83559f02534c,english,english,linguistics? listening,22,EXHAUSTED,http://honestcookingblog.com/soundfiles/suu.mp3,A,879,hetoheto,hetoheto_EXHAUSTED,incorrect
60ddb84386eb83559f02534c,english,english,linguistics? listening,23,CLEAN,http://honestcookingblog.com/soundfiles/kyuukutsuka.mp3,A,901,kiree,kiree_CLEAN,correct
60ddb84386eb83559f02534c,english,english,linguistics? listening,24,SHIVERS (DOWN YOUR SPINE),http://honestcookingblog.com/soundfiles/yagurasyika.mp3,A,748,zoNzoN,zoNzoN_SHIVERING,incorrect
60ddb84386eb83559f02534c,english,english,linguistics? listening,25,ENERGETIC,http://honestcookingblog.com/soundfiles/ookii.mp3,B,2655,geNki,geNki_LIVELY,incorrect
60ddb84386eb83559f02534c,english,english,linguistics? listening,26,FULL (FROM EATING),http://honestcookingblog.com/soundfiles/zarazara.mp3,B,913,maNpuku,maNpuku_STUFFED (FULL OF FOOD),correct
60ddb84386eb83559f02534c,english,english,linguistics? listening,27,CUNNING,http://honestcookingblog.com/soundfiles/zyiNzyiN.mp3,A,846,kosui,kosui_CUNNING,correct
60ddb84386eb83559f02534c,english,english,linguistics? listening,28,HARD,http://honestcookingblog.com/soundfiles/kyuukutsuka.mp3,B,1020,katai,katai_HARD,correct
60ddb84386eb83559f02534c,english,english,linguistics? listening,29,HOPPING,http://honestcookingblog.com/soundfiles/tyiQtyai.mp3,A,1335,pyoNpyoN,pyoNpyoN_HOPPING,correct
60ddb84386eb83559f02534c,english,english,linguistics? listening,30,WHISPERING,http://honestcookingblog.com/soundfiles/yoroyoro.mp3,B,973,hisohiso,hisohiso_WHISPERING,correct
60df9d56277451ffa57e4827,English,Spanish,"Being given a word in English and then deciding after listening to two Japanese words, which one sounds like it would be the English word",1,WOBBLING,http://honestcookingblog.com/soundfiles/kutakuta.mp3,A,1069,yoroyoro,yoroyoro_WOBBLING,correct
60df9d56277451ffa57e4827,English,Spanish,"Being given a word in English and then deciding after listening to two Japanese words, which one sounds like it would be the English word",2,FLUFFY,http://honestcookingblog.com/soundfiles/semai.mp3,B,1123,fuwafuwa,fuwafuwa_SOFT,correct
60df9d56277451ffa57e4827,English,Spanish,"Being given a word in English and then deciding after listening to two Japanese words, which one sounds like it would be the English word",3,NOISY,http://honestcookingblog.com/soundfiles/iQpai.mp3,A,958,yakamasyii,yakamasyii_NOISY,correct
60df9d56277451ffa57e4827,English,Spanish,"Being given a word in English and then deciding after listening to two Japanese words, which one sounds like it would be the English word",4,MASSIVE,http://honestcookingblog.com/soundfiles/zoNzoN.mp3,B,1162,ookii,ookii_BIG,correct
60df9d56277451ffa57e4827,English,Spanish,"Being given a word in English and then deciding after listening to two Japanese words, which one sounds like it would be the English word",5,SLIMY,http://honestcookingblog.com/soundfiles/hetoheto.mp3,A,861,nurunuru,nurunuru_SLIMY,correct
60df9d56277451ffa57e4827,English,Spanish,"Being given a word in English and then deciding after listening to two Japanese words, which one sounds like it would be the English word",6,BLURRY,http://honestcookingblog.com/soundfiles/kosui.mp3,B,1619,boNyari,boNyari_FUZZY,correct
60df9d56277451ffa57e4827,English,Spanish,"Being given a word in English and then deciding after listening to two Japanese words, which one sounds like it would be the English word",7,FULL (TO THE BRIM),http://honestcookingblog.com/soundfiles/yagurasyika.mp3,B,1399,iQpai,iQpai_FULL (TO THE BRIM),incorrect
60df9d56277451ffa57e4827,English,Spanish,"Being given a word in English and then deciding after listening to two Japanese words, which one sounds like it would be the English word",8,RIP,http://honestcookingblog.com/soundfiles/ookii.mp3,B,745,saku,saku_TEAR,correct
60df9d56277451ffa57e4827,English,Spanish,"Being given a word in English and then deciding after listening to two Japanese words, which one sounds like it would be the English word",9,RINGING (E.G. A RINGING SOUND IN YOUR EARS),http://honestcookingblog.com/soundfiles/kutakuta.mp3,A,2686,kiiN,kiiN_RINGING,correct
60df9d56277451ffa57e4827,English,Spanish,"Being given a word in English and then deciding after listening to two Japanese words, which one sounds like it would be the English word",10,TIGHT,http://honestcookingblog.com/soundfiles/geNki.mp3,A,1217,kyuukutsuka,kyuukutsuka_TIGHT,incorrect
60df9d56277451ffa57e4827,English,Spanish,"Being given a word in English and then deciding after listening to two Japanese words, which one sounds like it would be the English word",11,COARSE,http://honestcookingblog.com/soundfiles/kutakuta.mp3,B,1016,zarazara,zarazara_ROUGH,incorrect
60df9d56277451ffa57e4827,English,Spanish,"Being given a word in English and then deciding after listening to two Japanese words, which one sounds like it would be the English word",12,GOOEY,http://honestcookingblog.com/soundfiles/yoroyoro.mp3,B,676,nebaneba,nebaneba_STICKY,correct
60df9d56277451ffa57e4827,English,Spanish,"Being given a word in English and then deciding after listening to two Japanese words, which one sounds like it would be the English word",13,NOISY,http://honestcookingblog.com/soundfiles/nurunuru.mp3,A,1305,yagurasyika,yagurasyika_NOISY,correct
60df9d56277451ffa57e4827,English,Spanish,"Being given a word in English and then deciding after listening to two Japanese words, which one sounds like it would be the English word",14,CRAMPED,http://honestcookingblog.com/soundfiles/hisohiso.mp3,B,1183,semai,semai_CRAMPED,correct
60df9d56277451ffa57e4827,English,Spanish,"Being given a word in English and then deciding after listening to two Japanese words, which one sounds like it would be the English word",15,SMALL,http://honestcookingblog.com/soundfiles/katai.mp3,A,744,tyiQtyai,tyiQtyai_SMALL,correct
60df9d56277451ffa57e4827,English,Spanish,"Being given a word in English and then deciding after listening to two Japanese words, which one sounds like it would be the English word",16,TICKLING,http://honestcookingblog.com/soundfiles/zoNzoN.mp3,A,874,motyokoi,motyokoi_TICKLING,incorrect
60df9d56277451ffa57e4827,English,Spanish,"Being given a word in English and then deciding after listening to two Japanese words, which one sounds like it would be the English word",17,TIRED,http://honestcookingblog.com/soundfiles/tyiQtyai.mp3,B,698,kutakuta,kutakuta_EXHAUSTED,incorrect
60df9d56277451ffa57e4827,English,Spanish,"Being given a word in English and then deciding after listening to two Japanese words, which one sounds like it would be the English word",18,SLIMY,http://honestcookingblog.com/soundfiles/motyokoi.mp3,A,781,zuruNzuruN,zuruNzuruN_SLIMY,incorrect
60df9d56277451ffa57e4827,English,Spanish,"Being given a word in English and then deciding after listening to two Japanese words, which one sounds like it would be the English word",19,ANNOYED,http://honestcookingblog.com/soundfiles/saku.mp3,B,920,yakiyaki,yakiyaki_ANNOYED/IMPATIENT,incorrect
60df9d56277451ffa57e4827,English,Spanish,"Being given a word in English and then deciding after listening to two Japanese words, which one sounds like it would be the English word",20,SUCK,http://honestcookingblog.com/soundfiles/geNki.mp3,B,1724,suu,suu_SUCK,correct
60df9d56277451ffa57e4827,English,Spanish,"Being given a word in English and then deciding after listening to two Japanese words, which one sounds like it would be the English word",21,POUNDING (E.G. HEADACHE),http://honestcookingblog.com/soundfiles/hisohiso.mp3,A,934,zyiNzyiN,zyiNzyiN_POUNDING (HEAD),correct
60df9d56277451ffa57e4827,English,Spanish,"Being given a word in English and then deciding after listening to two Japanese words, which one sounds like it would be the English word",22,EXHAUSTED,http://honestcookingblog.com/soundfiles/pyoNpyoN.mp3,A,1566,hetoheto,hetoheto_EXHAUSTED,incorrect
60df9d56277451ffa57e4827,English,Spanish,"Being given a word in English and then deciding after listening to two Japanese words, which one sounds like it would be the English word",23,TIDY,http://honestcookingblog.com/soundfiles/boNyari.mp3,B,958,kiree,kiree_CLEAN,incorrect
60df9d56277451ffa57e4827,English,Spanish,"Being given a word in English and then deciding after listening to two Japanese words, which one sounds like it would be the English word",24,(SPINE) TINGLING,http://honestcookingblog.com/soundfiles/kiiN.mp3,B,1149,zoNzoN,zoNzoN_SHIVERING,correct
60df9d56277451ffa57e4827,English,Spanish,"Being given a word in English and then deciding after listening to two Japanese words, which one sounds like it would be the English word",25,LIVELY,http://honestcookingblog.com/soundfiles/yakiyaki.mp3,A,829,geNki,geNki_LIVELY,correct
60df9d56277451ffa57e4827,English,Spanish,"Being given a word in English and then deciding after listening to two Japanese words, which one sounds like it would be the English word",26,FULL (FROM EATING),http://honestcookingblog.com/soundfiles/yagurasyika.mp3,B,1881,maNpuku,maNpuku_STUFFED (FULL OF FOOD),correct
60df9d56277451ffa57e4827,English,Spanish,"Being given a word in English and then deciding after listening to two Japanese words, which one sounds like it would be the English word",27,CUNNING,http://honestcookingblog.com/soundfiles/yagurasyika.mp3,A,1492,kosui,kosui_CUNNING,correct
60df9d56277451ffa57e4827,English,Spanish,"Being given a word in English and then deciding after listening to two Japanese words, which one sounds like it would be the English word",28,HARD,http://honestcookingblog.com/soundfiles/kiree.mp3,B,1237,katai,katai_HARD,correct
60df9d56277451ffa57e4827,English,Spanish,"Being given a word in English and then deciding after listening to two Japanese words, which one sounds like it would be the English word",29,HOPPING,http://honestcookingblog.com/soundfiles/kiiN.mp3,A,842,pyoNpyoN,pyoNpyoN_HOPPING,correct
60df9d56277451ffa57e4827,English,Spanish,"Being given a word in English and then deciding after listening to two Japanese words, which one sounds like it would be the English word",30,WHISPERING,http://honestcookingblog.com/soundfiles/yakiyaki.mp3,B,715,hisohiso,hisohiso_WHISPERING,correct
60e1ce0bac2c9abe97d1f0da,English,n/a,Listening to several Japanese words and guessing out of 2 options what they meant in english.,1,WOBBLING,http://honestcookingblog.com/soundfiles/zoNzoN.mp3,A,4325,yoroyoro,yoroyoro_WOBBLING,correct
60e1ce0bac2c9abe97d1f0da,English,n/a,Listening to several Japanese words and guessing out of 2 options what they meant in english.,2,FLUFFY,http://honestcookingblog.com/soundfiles/saku.mp3,A,1907,fuwafuwa,fuwafuwa_SOFT,incorrect
60e1ce0bac2c9abe97d1f0da,English,n/a,Listening to several Japanese words and guessing out of 2 options what they meant in english.,3,NOISY,http://honestcookingblog.com/soundfiles/zarazara.mp3,A,1697,yakamasyii,yakamasyii_NOISY,correct
60e1ce0bac2c9abe97d1f0da,English,n/a,Listening to several Japanese words and guessing out of 2 options what they meant in english.,4,MASSIVE,http://honestcookingblog.com/soundfiles/kosui.mp3,A,1267,ookii,ookii_BIG,incorrect
60e1ce0bac2c9abe97d1f0da,English,n/a,Listening to several Japanese words and guessing out of 2 options what they meant in english.,5,SLICK,http://honestcookingblog.com/soundfiles/kiree.mp3,B,912,nurunuru,nurunuru_SLIMY,incorrect
60e1ce0bac2c9abe97d1f0da,English,n/a,Listening to several Japanese words and guessing out of 2 options what they meant in english.,6,HAZY,http://honestcookingblog.com/soundfiles/yagurasyika.mp3,B,1094,boNyari,boNyari_FUZZY,correct
60e1ce0bac2c9abe97d1f0da,English,n/a,Listening to several Japanese words and guessing out of 2 options what they meant in english.,7,FULL (TO THE BRIM),http://honestcookingblog.com/soundfiles/tyiQtyai.mp3,A,1380,iQpai,iQpai_FULL (TO THE BRIM),correct
60e1ce0bac2c9abe97d1f0da,English,n/a,Listening to several Japanese words and guessing out of 2 options what they meant in english.,8,RIP,http://honestcookingblog.com/soundfiles/zoNzoN.mp3,B,4231,saku,saku_TEAR,correct
60e1ce0bac2c9abe97d1f0da,English,n/a,Listening to several Japanese words and guessing out of 2 options what they meant in english.,9,RINGING (E.G. A RINGING SOUND IN YOUR EARS),http://honestcookingblog.com/soundfiles/geNki.mp3,A,1133,kiiN,kiiN_RINGING,correct
60e1ce0bac2c9abe97d1f0da,English,n/a,Listening to several Japanese words and guessing out of 2 options what they meant in english.,10,PINCHING,http://honestcookingblog.com/soundfiles/zarazara.mp3,B,1529,kyuukutsuka,kyuukutsuka_TIGHT,correct
60e1ce0bac2c9abe97d1f0da,English,n/a,Listening to several Japanese words and guessing out of 2 options what they meant in english.,11,COARSE,http://honestcookingblog.com/soundfiles/yagurasyika.mp3,A,4198,zarazara,zarazara_ROUGH,correct
60e1ce0bac2c9abe97d1f0da,English,n/a,Listening to several Japanese words and guessing out of 2 options what they meant in english.,12,STICKY,http://honestcookingblog.com/soundfiles/kosui.mp3,A,1403,nebaneba,nebaneba_STICKY,incorrect
60e1ce0bac2c9abe97d1f0da,English,n/a,Listening to several Japanese words and guessing out of 2 options what they meant in english.,13,NOISY,http://honestcookingblog.com/soundfiles/saku.mp3,A,1289,yagurasyika,yagurasyika_NOISY,correct
60e1ce0bac2c9abe97d1f0da,English,n/a,Listening to several Japanese words and guessing out of 2 options what they meant in english.,14,CRAMPED,http://honestcookingblog.com/soundfiles/maNpuku.mp3,B,881,semai,semai_CRAMPED,correct
60e1ce0bac2c9abe97d1f0da,English,n/a,Listening to several Japanese words and guessing out of 2 options what they meant in english.,15,LITTLE,http://honestcookingblog.com/soundfiles/semai.mp3,A,1746,tyiQtyai,tyiQtyai_SMALL,correct
60e1ce0bac2c9abe97d1f0da,English,n/a,Listening to several Japanese words and guessing out of 2 options what they meant in english.,16,TICKLING,http://honestcookingblog.com/soundfiles/kosui.mp3,B,4466,motyokoi,motyokoi_TICKLING,correct
60e1ce0bac2c9abe97d1f0da,English,n/a,Listening to several Japanese words and guessing out of 2 options what they meant in english.,17,TIRED,http://honestcookingblog.com/soundfiles/suu.mp3,B,1648,kutakuta,kutakuta_EXHAUSTED,incorrect
60e1ce0bac2c9abe97d1f0da,English,n/a,Listening to several Japanese words and guessing out of 2 options what they meant in english.,18,SLIMY,http://honestcookingblog.com/soundfiles/boNyari.mp3,B,1961,zuruNzuruN,zuruNzuruN_SLIMY,correct
60e1ce0bac2c9abe97d1f0da,English,n/a,Listening to several Japanese words and guessing out of 2 options what they meant in english.,19,ANNOYED,http://honestcookingblog.com/soundfiles/fuwafuwa.mp3,A,3212,yakiyaki,yakiyaki_ANNOYED/IMPATIENT,correct
60e1ce0bac2c9abe97d1f0da,English,n/a,Listening to several Japanese words and guessing out of 2 options what they meant in english.,20,SUCK,http://honestcookingblog.com/soundfiles/geNki.mp3,A,1110,suu,suu_SUCK,incorrect
60e1ce0bac2c9abe97d1f0da,English,n/a,Listening to several Japanese words and guessing out of 2 options what they meant in english.,21,THROBBING (E.G. HEADACHE),http://honestcookingblog.com/soundfiles/maNpuku.mp3,A,1490,zyiNzyiN,zyiNzyiN_POUNDING (HEAD),correct
60e1ce0bac2c9abe97d1f0da,English,n/a,Listening to several Japanese words and guessing out of 2 options what they meant in english.,22,TIRED,http://honestcookingblog.com/soundfiles/saku.mp3,A,963,hetoheto,hetoheto_EXHAUSTED,incorrect
60e1ce0bac2c9abe97d1f0da,English,n/a,Listening to several Japanese words and guessing out of 2 options what they meant in english.,23,TIDY,http://honestcookingblog.com/soundfiles/pyoNpyoN.mp3,A,1051,kiree,kiree_CLEAN,correct
60e1ce0bac2c9abe97d1f0da,English,n/a,Listening to several Japanese words and guessing out of 2 options what they meant in english.,24,SHIVERS (DOWN YOUR SPINE),http://honestcookingblog.com/soundfiles/fuwafuwa.mp3,A,2485,zoNzoN,zoNzoN_SHIVERING,incorrect
60e1ce0bac2c9abe97d1f0da,English,n/a,Listening to several Japanese words and guessing out of 2 options what they meant in english.,25,ENERGETIC,http://honestcookingblog.com/soundfiles/yoroyoro.mp3,B,2859,geNki,geNki_LIVELY,incorrect
60e1ce0bac2c9abe97d1f0da,English,n/a,Listening to several Japanese words and guessing out of 2 options what they meant in english.,26,STUFFED (FROM EATING TOO MUCH),http://honestcookingblog.com/soundfiles/zoNzoN.mp3,B,1169,maNpuku,maNpuku_STUFFED (FULL OF FOOD),correct
60e1ce0bac2c9abe97d1f0da,English,n/a,Listening to several Japanese words and guessing out of 2 options what they meant in english.,27,CUNNING,http://honestcookingblog.com/soundfiles/pyoNpyoN.mp3,A,921,kosui,kosui_CUNNING,correct
60e1ce0bac2c9abe97d1f0da,English,n/a,Listening to several Japanese words and guessing out of 2 options what they meant in english.,28,HARD,http://honestcookingblog.com/soundfiles/fuwafuwa.mp3,B,1153,katai,katai_HARD,correct
60e1ce0bac2c9abe97d1f0da,English,n/a,Listening to several Japanese words and guessing out of 2 options what they meant in english.,29,HOPPING,http://honestcookingblog.com/soundfiles/maNpuku.mp3,B,1995,pyoNpyoN,pyoNpyoN_HOPPING,incorrect
60e1ce0bac2c9abe97d1f0da,English,n/a,Listening to several Japanese words and guessing out of 2 options what they meant in english.,30,WHISPERING,http://honestcookingblog.com/soundfiles/iQpai.mp3,B,1452,hisohiso,hisohiso_WHISPERING,correct
60ddbefacc9eafa7dfab6795,English,NA,guessing game,1,WOBBLING,http://honestcookingblog.com/soundfiles/kyuukutsuka.mp3,A,2094,yoroyoro,yoroyoro_WOBBLING,correct
60ddbefacc9eafa7dfab6795,English,NA,guessing game,2,FLUFFY,http://honestcookingblog.com/soundfiles/kosui.mp3,A,1807,fuwafuwa,fuwafuwa_SOFT,incorrect
60ddbefacc9eafa7dfab6795,English,NA,guessing game,3,NOISY,http://honestcookingblog.com/soundfiles/yoroyoro.mp3,A,813,yakamasyii,yakamasyii_NOISY,correct
60ddbefacc9eafa7dfab6795,English,NA,guessing game,4,MASSIVE,http://honestcookingblog.com/soundfiles/katai.mp3,A,1733,ookii,ookii_BIG,incorrect
60ddbefacc9eafa7dfab6795,English,NA,guessing game,5,SLICK,http://honestcookingblog.com/soundfiles/saku.mp3,B,1020,nurunuru,nurunuru_SLIMY,incorrect
60ddbefacc9eafa7dfab6795,English,NA,guessing game,6,FUZZY,http://honestcookingblog.com/soundfiles/kosui.mp3,A,873,boNyari,boNyari_FUZZY,incorrect
60ddbefacc9eafa7dfab6795,English,NA,guessing game,7,FULL (TO BURSTING),http://honestcookingblog.com/soundfiles/saku.mp3,A,759,iQpai,iQpai_FULL (TO THE BRIM),correct
60ddbefacc9eafa7dfab6795,English,NA,guessing game,8,RIP,http://honestcookingblog.com/soundfiles/hetoheto.mp3,B,1443,saku,saku_TEAR,correct
60ddbefacc9eafa7dfab6795,English,NA,guessing game,9,RINGING (E.G. A RINGING SOUND IN YOUR EARS),http://honestcookingblog.com/soundfiles/kyuukutsuka.mp3,A,925,kiiN,kiiN_RINGING,correct
60ddbefacc9eafa7dfab6795,English,NA,guessing game,10,PINCHING,http://honestcookingblog.com/soundfiles/ookii.mp3,A,905,kyuukutsuka,kyuukutsuka_TIGHT,incorrect
60ddbefacc9eafa7dfab6795,English,NA,guessing game,11,COARSE,http://honestcookingblog.com/soundfiles/zoNzoN.mp3,B,731,zarazara,zarazara_ROUGH,incorrect
60ddbefacc9eafa7dfab6795,English,NA,guessing game,12,STICKY,http://honestcookingblog.com/soundfiles/hetoheto.mp3,A,1416,nebaneba,nebaneba_STICKY,incorrect
60ddbefacc9eafa7dfab6795,English,NA,guessing game,13,NOISY,http://honestcookingblog.com/soundfiles/kiree.mp3,A,1023,yagurasyika,yagurasyika_NOISY,correct
60ddbefacc9eafa7dfab6795,English,NA,guessing game,14,CRAMPED,http://honestcookingblog.com/soundfiles/yoroyoro.mp3,B,2463,semai,semai_CRAMPED,correct
60ddbefacc9eafa7dfab6795,English,NA,guessing game,15,TINY,http://honestcookingblog.com/soundfiles/kosui.mp3,B,615,tyiQtyai,tyiQtyai_SMALL,incorrect
60ddbefacc9eafa7dfab6795,English,NA,guessing game,16,TICKLING,http://honestcookingblog.com/soundfiles/boNyari.mp3,A,985,motyokoi,motyokoi_TICKLING,incorrect
60ddbefacc9eafa7dfab6795,English,NA,guessing game,17,TIRED,http://honestcookingblog.com/soundfiles/zuruNzuruN.mp3,B,1433,kutakuta,kutakuta_EXHAUSTED,incorrect
60ddbefacc9eafa7dfab6795,English,NA,guessing game,18,SLIMY,http://honestcookingblog.com/soundfiles/motyokoi.mp3,B,1762,zuruNzuruN,zuruNzuruN_SLIMY,correct
60ddbefacc9eafa7dfab6795,English,NA,guessing game,19,ANNOYED,http://honestcookingblog.com/soundfiles/maNpuku.mp3,B,703,yakiyaki,yakiyaki_ANNOYED/IMPATIENT,incorrect
60ddbefacc9eafa7dfab6795,English,NA,guessing game,20,SUCK,http://honestcookingblog.com/soundfiles/zoNzoN.mp3,B,849,suu,suu_SUCK,correct
60ddbefacc9eafa7dfab6795,English,NA,guessing game,21,THROBBING (E.G. HEADACHE),http://honestcookingblog.com/soundfiles/boNyari.mp3,B,910,zyiNzyiN,zyiNzyiN_POUNDING (HEAD),incorrect
60ddbefacc9eafa7dfab6795,English,NA,guessing game,22,TIRED,http://honestcookingblog.com/soundfiles/fuwafuwa.mp3,A,1118,hetoheto,hetoheto_EXHAUSTED,incorrect
60ddbefacc9eafa7dfab6795,English,NA,guessing game,23,CLEAN,http://honestcookingblog.com/soundfiles/hetoheto.mp3,A,669,kiree,kiree_CLEAN,correct
60ddbefacc9eafa7dfab6795,English,NA,guessing game,24,(SPINE) TINGLING,http://honestcookingblog.com/soundfiles/ookii.mp3,A,1321,zoNzoN,zoNzoN_SHIVERING,incorrect
60ddbefacc9eafa7dfab6795,English,NA,guessing game,25,ENERGETIC,http://honestcookingblog.com/soundfiles/yakamasyii.mp3,B,1547,geNki,geNki_LIVELY,incorrect
60ddbefacc9eafa7dfab6795,English,NA,guessing game,26,FULL (FROM EATING),http://honestcookingblog.com/soundfiles/saku.mp3,B,632,maNpuku,maNpuku_STUFFED (FULL OF FOOD),correct
60ddbefacc9eafa7dfab6795,English,NA,guessing game,27,SLY,http://honestcookingblog.com/soundfiles/zarazara.mp3,A,2028,kosui,kosui_CUNNING,correct
60ddbefacc9eafa7dfab6795,English,NA,guessing game,28,HARD,http://honestcookingblog.com/soundfiles/tyiQtyai.mp3,B,2320,katai,katai_HARD,correct
60ddbefacc9eafa7dfab6795,English,NA,guessing game,29,BOUNCING,http://honestcookingblog.com/soundfiles/kutakuta.mp3,A,1020,pyoNpyoN,pyoNpyoN_HOPPING,correct
60ddbefacc9eafa7dfab6795,English,NA,guessing game,30,WHISPERING,http://honestcookingblog.com/soundfiles/semai.mp3,B,655,hisohiso,hisohiso_WHISPERING,correct
60e08644e544d30d90eac375,English,None,Trying to determine japanese words by listening to two examples.,1,WOBBLING,http://honestcookingblog.com/soundfiles/suu.mp3,A,10357,yoroyoro,yoroyoro_WOBBLING,correct
60e08644e544d30d90eac375,English,None,Trying to determine japanese words by listening to two examples.,2,FLUFFY,http://honestcookingblog.com/soundfiles/tyiQtyai.mp3,B,2753,fuwafuwa,fuwafuwa_SOFT,correct
60e08644e544d30d90eac375,English,None,Trying to determine japanese words by listening to two examples.,3,NOISY,http://honestcookingblog.com/soundfiles/hetoheto.mp3,A,2755,yakamasyii,yakamasyii_NOISY,correct
60e08644e544d30d90eac375,English,None,Trying to determine japanese words by listening to two examples.,4,BIG,http://honestcookingblog.com/soundfiles/hetoheto.mp3,B,2444,ookii,ookii_BIG,correct
60e08644e544d30d90eac375,English,None,Trying to determine japanese words by listening to two examples.,5,SLIMY,http://honestcookingblog.com/soundfiles/fuwafuwa.mp3,A,3366,nurunuru,nurunuru_SLIMY,correct
60e08644e544d30d90eac375,English,None,Trying to determine japanese words by listening to two examples.,6,HAZY,http://honestcookingblog.com/soundfiles/motyokoi.mp3,A,4782,boNyari,boNyari_FUZZY,incorrect
60e08644e544d30d90eac375,English,None,Trying to determine japanese words by listening to two examples.,7,FULL (TO BURSTING),http://honestcookingblog.com/soundfiles/saku.mp3,B,3447,iQpai,iQpai_FULL (TO THE BRIM),incorrect
60e08644e544d30d90eac375,English,None,Trying to determine japanese words by listening to two examples.,8,RIP,http://honestcookingblog.com/soundfiles/kiree.mp3,B,2077,saku,saku_TEAR,correct
60e08644e544d30d90eac375,English,None,Trying to determine japanese words by listening to two examples.,9,RINGING (E.G. A RINGING SOUND IN YOUR EARS),http://honestcookingblog.com/soundfiles/nurunuru.mp3,B,4516,kiiN,kiiN_RINGING,incorrect
60e08644e544d30d90eac375,English,None,Trying to determine japanese words by listening to two examples.,10,TIGHT,http://honestcookingblog.com/soundfiles/yoroyoro.mp3,B,2054,kyuukutsuka,kyuukutsuka_TIGHT,correct
60e08644e544d30d90eac375,English,None,Trying to determine japanese words by listening to two examples.,11,ROUGH,http://honestcookingblog.com/soundfiles/ookii.mp3,B,7640,zarazara,zarazara_ROUGH,incorrect
60e08644e544d30d90eac375,English,None,Trying to determine japanese words by listening to two examples.,12,GOOEY,http://honestcookingblog.com/soundfiles/fuwafuwa.mp3,A,3120,nebaneba,nebaneba_STICKY,incorrect
60e08644e544d30d90eac375,English,None,Trying to determine japanese words by listening to two examples.,13,LOUD,http://honestcookingblog.com/soundfiles/pyoNpyoN.mp3,A,1562,yagurasyika,yagurasyika_NOISY,correct
60e08644e544d30d90eac375,English,None,Trying to determine japanese words by listening to two examples.,14,TIGHT,http://honestcookingblog.com/soundfiles/pyoNpyoN.mp3,B,3043,semai,semai_CRAMPED,correct
60e08644e544d30d90eac375,English,None,Trying to determine japanese words by listening to two examples.,15,TINY,http://honestcookingblog.com/soundfiles/katai.mp3,B,1153,tyiQtyai,tyiQtyai_SMALL,incorrect
60e08644e544d30d90eac375,English,None,Trying to determine japanese words by listening to two examples.,16,TICKLING,http://honestcookingblog.com/soundfiles/tyiQtyai.mp3,A,9273,motyokoi,motyokoi_TICKLING,incorrect
60e08644e544d30d90eac375,English,None,Trying to determine japanese words by listening to two examples.,17,TIRED,http://honestcookingblog.com/soundfiles/nebaneba.mp3,A,1605,kutakuta,kutakuta_EXHAUSTED,correct
60e08644e544d30d90eac375,English,None,Trying to determine japanese words by listening to two examples.,18,GOOEY,http://honestcookingblog.com/soundfiles/kyuukutsuka.mp3,A,5710,zuruNzuruN,zuruNzuruN_SLIMY,incorrect
60e08644e544d30d90eac375,English,None,Trying to determine japanese words by listening to two examples.,19,IMPATIENT,http://honestcookingblog.com/soundfiles/kutakuta.mp3,B,1669,yakiyaki,yakiyaki_ANNOYED/IMPATIENT,incorrect
60e08644e544d30d90eac375,English,None,Trying to determine japanese words by listening to two examples.,20,SUCK,http://honestcookingblog.com/soundfiles/semai.mp3,B,7922,suu,suu_SUCK,correct
60e08644e544d30d90eac375,English,None,Trying to determine japanese words by listening to two examples.,21,POUNDING (E.G. HEADACHE),http://honestcookingblog.com/soundfiles/semai.mp3,A,2914,zyiNzyiN,zyiNzyiN_POUNDING (HEAD),correct
60e08644e544d30d90eac375,English,None,Trying to determine japanese words by listening to two examples.,22,WEARY,http://honestcookingblog.com/soundfiles/yagurasyika.mp3,A,1348,hetoheto,hetoheto_EXHAUSTED,incorrect
60e08644e544d30d90eac375,English,None,Trying to determine japanese words by listening to two examples.,23,CLEAN,http://honestcookingblog.com/soundfiles/iQpai.mp3,A,1693,kiree,kiree_CLEAN,correct
60e08644e544d30d90eac375,English,None,Trying to determine japanese words by listening to two examples.,24,SHIVERS (DOWN YOUR SPINE),http://honestcookingblog.com/soundfiles/tyiQtyai.mp3,B,2042,zoNzoN,zoNzoN_SHIVERING,correct
60e08644e544d30d90eac375,English,None,Trying to determine japanese words by listening to two examples.,25,LIVELY,http://honestcookingblog.com/soundfiles/maNpuku.mp3,B,1819,geNki,geNki_LIVELY,incorrect
60e08644e544d30d90eac375,English,None,Trying to determine japanese words by listening to two examples.,26,STUFFED (FROM EATING TOO MUCH),http://honestcookingblog.com/soundfiles/geNki.mp3,A,2483,maNpuku,maNpuku_STUFFED (FULL OF FOOD),incorrect
60e08644e544d30d90eac375,English,None,Trying to determine japanese words by listening to two examples.,27,SNEAKY,http://honestcookingblog.com/soundfiles/yakamasyii.mp3,A,2606,kosui,kosui_CUNNING,correct
60e08644e544d30d90eac375,English,None,Trying to determine japanese words by listening to two examples.,28,HARD,http://honestcookingblog.com/soundfiles/motyokoi.mp3,B,4263,katai,katai_HARD,correct
60e08644e544d30d90eac375,English,None,Trying to determine japanese words by listening to two examples.,29,BOUNCING,http://honestcookingblog.com/soundfiles/kiree.mp3,A,1300,pyoNpyoN,pyoNpyoN_HOPPING,correct
60e08644e544d30d90eac375,English,None,Trying to determine japanese words by listening to two examples.,30,WHISPERING,http://honestcookingblog.com/soundfiles/saku.mp3,A,2845,hisohiso,hisohiso_WHISPERING,incorrect
60e0af6e84a81c28f1a8f27d,English,NA,"Listening to two words in Japanese, and selecting which one is the most likely translation of a given English word",1,WOBBLING,http://honestcookingblog.com/soundfiles/geNki.mp3,B,4560,yoroyoro,yoroyoro_WOBBLING,incorrect
60e0af6e84a81c28f1a8f27d,English,NA,"Listening to two words in Japanese, and selecting which one is the most likely translation of a given English word",2,FLUFFY,http://honestcookingblog.com/soundfiles/hisohiso.mp3,B,2458,fuwafuwa,fuwafuwa_SOFT,correct
60e0af6e84a81c28f1a8f27d,English,NA,"Listening to two words in Japanese, and selecting which one is the most likely translation of a given English word",3,NOISY,http://honestcookingblog.com/soundfiles/nebaneba.mp3,A,2382,yakamasyii,yakamasyii_NOISY,correct
60e0af6e84a81c28f1a8f27d,English,NA,"Listening to two words in Japanese, and selecting which one is the most likely translation of a given English word",4,MASSIVE,http://honestcookingblog.com/soundfiles/nebaneba.mp3,A,4573,ookii,ookii_BIG,incorrect
60e0af6e84a81c28f1a8f27d,English,NA,"Listening to two words in Japanese, and selecting which one is the most likely translation of a given English word",5,SLICK,http://honestcookingblog.com/soundfiles/kutakuta.mp3,A,3576,nurunuru,nurunuru_SLIMY,correct
60e0af6e84a81c28f1a8f27d,English,NA,"Listening to two words in Japanese, and selecting which one is the most likely translation of a given English word",6,BLURRY,http://honestcookingblog.com/soundfiles/tyiQtyai.mp3,A,1982,boNyari,boNyari_FUZZY,incorrect
60e0af6e84a81c28f1a8f27d,English,NA,"Listening to two words in Japanese, and selecting which one is the most likely translation of a given English word",7,FULL (TO BURSTING),http://honestcookingblog.com/soundfiles/zyiNzyiN.mp3,B,1883,iQpai,iQpai_FULL (TO THE BRIM),incorrect
60e0af6e84a81c28f1a8f27d,English,NA,"Listening to two words in Japanese, and selecting which one is the most likely translation of a given English word",8,TEAR,http://honestcookingblog.com/soundfiles/kiiN.mp3,A,2120,saku,saku_TEAR,incorrect
60e0af6e84a81c28f1a8f27d,English,NA,"Listening to two words in Japanese, and selecting which one is the most likely translation of a given English word",9,RINGING (E.G. A RINGING SOUND IN YOUR EARS),http://honestcookingblog.com/soundfiles/nebaneba.mp3,A,2187,kiiN,kiiN_RINGING,correct
60e0af6e84a81c28f1a8f27d,English,NA,"Listening to two words in Japanese, and selecting which one is the most likely translation of a given English word",10,PINCHING,http://honestcookingblog.com/soundfiles/motyokoi.mp3,A,3683,kyuukutsuka,kyuukutsuka_TIGHT,incorrect
60e0af6e84a81c28f1a8f27d,English,NA,"Listening to two words in Japanese, and selecting which one is the most likely translation of a given English word",11,GRITTY,http://honestcookingblog.com/soundfiles/zuruNzuruN.mp3,B,2785,zarazara,zarazara_ROUGH,incorrect
60e0af6e84a81c28f1a8f27d,English,NA,"Listening to two words in Japanese, and selecting which one is the most likely translation of a given English word",12,GOOEY,http://honestcookingblog.com/soundfiles/suu.mp3,A,3199,nebaneba,nebaneba_STICKY,incorrect
60e0af6e84a81c28f1a8f27d,English,NA,"Listening to two words in Japanese, and selecting which one is the most likely translation of a given English word",13,LOUD,http://honestcookingblog.com/soundfiles/suu.mp3,A,2363,yagurasyika,yagurasyika_NOISY,correct
60e0af6e84a81c28f1a8f27d,English,NA,"Listening to two words in Japanese, and selecting which one is the most likely translation of a given English word",14,CRAMPED,http://honestcookingblog.com/soundfiles/saku.mp3,B,2910,semai,semai_CRAMPED,correct
60e0af6e84a81c28f1a8f27d,English,NA,"Listening to two words in Japanese, and selecting which one is the most likely translation of a given English word",15,LITTLE,http://honestcookingblog.com/soundfiles/nebaneba.mp3,A,864,tyiQtyai,tyiQtyai_SMALL,correct
60e0af6e84a81c28f1a8f27d,English,NA,"Listening to two words in Japanese, and selecting which one is the most likely translation of a given English word",16,TICKLING,http://honestcookingblog.com/soundfiles/boNyari.mp3,B,2210,motyokoi,motyokoi_TICKLING,correct
60e0af6e84a81c28f1a8f27d,English,NA,"Listening to two words in Japanese, and selecting which one is the most likely translation of a given English word",17,WEARY,http://honestcookingblog.com/soundfiles/fuwafuwa.mp3,B,2573,kutakuta,kutakuta_EXHAUSTED,incorrect
60e0af6e84a81c28f1a8f27d,English,NA,"Listening to two words in Japanese, and selecting which one is the most likely translation of a given English word",18,SLIMY,http://honestcookingblog.com/soundfiles/semai.mp3,B,1734,zuruNzuruN,zuruNzuruN_SLIMY,correct
60e0af6e84a81c28f1a8f27d,English,NA,"Listening to two words in Japanese, and selecting which one is the most likely translation of a given English word",19,ANNOYED,http://honestcookingblog.com/soundfiles/yakamasyii.mp3,A,2052,yakiyaki,yakiyaki_ANNOYED/IMPATIENT,correct
60e0af6e84a81c28f1a8f27d,English,NA,"Listening to two words in Japanese, and selecting which one is the most likely translation of a given English word",20,SUCK,http://honestcookingblog.com/soundfiles/zyiNzyiN.mp3,B,3976,suu,suu_SUCK,correct
60e0af6e84a81c28f1a8f27d,English,NA,"Listening to two words in Japanese, and selecting which one is the most likely translation of a given English word",21,POUNDING (E.G. HEADACHE),http://honestcookingblog.com/soundfiles/kutakuta.mp3,A,1907,zyiNzyiN,zyiNzyiN_POUNDING (HEAD),correct
60e0af6e84a81c28f1a8f27d,English,NA,"Listening to two words in Japanese, and selecting which one is the most likely translation of a given English word",22,WEARY,http://honestcookingblog.com/soundfiles/iQpai.mp3,A,3396,hetoheto,hetoheto_EXHAUSTED,incorrect
60e0af6e84a81c28f1a8f27d,English,NA,"Listening to two words in Japanese, and selecting which one is the most likely translation of a given English word",23,TIDY,http://honestcookingblog.com/soundfiles/yakiyaki.mp3,A,2679,kiree,kiree_CLEAN,correct
60e0af6e84a81c28f1a8f27d,English,NA,"Listening to two words in Japanese, and selecting which one is the most likely translation of a given English word",24,(SPINE) TINGLING,http://honestcookingblog.com/soundfiles/zyiNzyiN.mp3,B,3454,zoNzoN,zoNzoN_SHIVERING,correct
60e0af6e84a81c28f1a8f27d,English,NA,"Listening to two words in Japanese, and selecting which one is the most likely translation of a given English word",25,LIVELY,http://honestcookingblog.com/soundfiles/yakiyaki.mp3,B,2328,geNki,geNki_LIVELY,incorrect
60e0af6e84a81c28f1a8f27d,English,NA,"Listening to two words in Japanese, and selecting which one is the most likely translation of a given English word",26,FULL (FROM EATING),http://honestcookingblog.com/soundfiles/nebaneba.mp3,B,713,maNpuku,maNpuku_STUFFED (FULL OF FOOD),correct
60e0af6e84a81c28f1a8f27d,English,NA,"Listening to two words in Japanese, and selecting which one is the most likely translation of a given English word",27,CUNNING,http://honestcookingblog.com/soundfiles/saku.mp3,B,1558,kosui,kosui_CUNNING,incorrect
60e0af6e84a81c28f1a8f27d,English,NA,"Listening to two words in Japanese, and selecting which one is the most likely translation of a given English word",28,HARD,http://honestcookingblog.com/soundfiles/maNpuku.mp3,B,1336,katai,katai_HARD,correct
60e0af6e84a81c28f1a8f27d,English,NA,"Listening to two words in Japanese, and selecting which one is the most likely translation of a given English word",29,HOPPING,http://honestcookingblog.com/soundfiles/nebaneba.mp3,A,760,pyoNpyoN,pyoNpyoN_HOPPING,correct
60e0af6e84a81c28f1a8f27d,English,NA,"Listening to two words in Japanese, and selecting which one is the most likely translation of a given English word",30,WHISPERING,http://honestcookingblog.com/soundfiles/zuruNzuruN.mp3,B,1172,hisohiso,hisohiso_WHISPERING,correct
60dd23ff5cfa2b6861f2f131,English,NA,Trying to understand what certain words i heard translated to in Japanese.,1,WOBBLING,http://honestcookingblog.com/soundfiles/yakamasyii.mp3,A,8765,yoroyoro,yoroyoro_WOBBLING,correct
60dd23ff5cfa2b6861f2f131,English,NA,Trying to understand what certain words i heard translated to in Japanese.,2,FLUFFY,http://honestcookingblog.com/soundfiles/zyiNzyiN.mp3,B,2158,fuwafuwa,fuwafuwa_SOFT,correct
60dd23ff5cfa2b6861f2f131,English,NA,Trying to understand what certain words i heard translated to in Japanese.,3,NOISY,http://honestcookingblog.com/soundfiles/nurunuru.mp3,A,1321,yakamasyii,yakamasyii_NOISY,correct
60dd23ff5cfa2b6861f2f131,English,NA,Trying to understand what certain words i heard translated to in Japanese.,4,BIG,http://honestcookingblog.com/soundfiles/katai.mp3,A,2582,ookii,ookii_BIG,incorrect
60dd23ff5cfa2b6861f2f131,English,NA,Trying to understand what certain words i heard translated to in Japanese.,5,SLIPPERY,http://honestcookingblog.com/soundfiles/boNyari.mp3,B,927,nurunuru,nurunuru_SLIMY,incorrect
60dd23ff5cfa2b6861f2f131,English,NA,Trying to understand what certain words i heard translated to in Japanese.,6,FUZZY,http://honestcookingblog.com/soundfiles/nurunuru.mp3,A,1034,boNyari,boNyari_FUZZY,incorrect
60dd23ff5cfa2b6861f2f131,English,NA,Trying to understand what certain words i heard translated to in Japanese.,7,FULL (TO THE BRIM),http://honestcookingblog.com/soundfiles/semai.mp3,A,975,iQpai,iQpai_FULL (TO THE BRIM),correct
60dd23ff5cfa2b6861f2f131,English,NA,Trying to understand what certain words i heard translated to in Japanese.,8,TEAR,http://honestcookingblog.com/soundfiles/zoNzoN.mp3,B,2862,saku,saku_TEAR,correct
60dd23ff5cfa2b6861f2f131,English,NA,Trying to understand what certain words i heard translated to in Japanese.,9,RINGING (E.G. A RINGING SOUND IN YOUR EARS),http://honestcookingblog.com/soundfiles/semai.mp3,A,1018,kiiN,kiiN_RINGING,correct
60dd23ff5cfa2b6861f2f131,English,NA,Trying to understand what certain words i heard translated to in Japanese.,10,TIGHT,http://honestcookingblog.com/soundfiles/yakiyaki.mp3,B,1334,kyuukutsuka,kyuukutsuka_TIGHT,correct
60dd23ff5cfa2b6861f2f131,English,NA,Trying to understand what certain words i heard translated to in Japanese.,11,COARSE,http://honestcookingblog.com/soundfiles/suu.mp3,B,1411,zarazara,zarazara_ROUGH,incorrect
60dd23ff5cfa2b6861f2f131,English,NA,Trying to understand what certain words i heard translated to in Japanese.,12,GOOEY,http://honestcookingblog.com/soundfiles/geNki.mp3,A,775,nebaneba,nebaneba_STICKY,incorrect
60dd23ff5cfa2b6861f2f131,English,NA,Trying to understand what certain words i heard translated to in Japanese.,13,NOISY,http://honestcookingblog.com/soundfiles/nurunuru.mp3,A,3357,yagurasyika,yagurasyika_NOISY,correct
60dd23ff5cfa2b6861f2f131,English,NA,Trying to understand what certain words i heard translated to in Japanese.,14,TIGHT,http://honestcookingblog.com/soundfiles/kutakuta.mp3,A,1066,semai,semai_CRAMPED,incorrect
60dd23ff5cfa2b6861f2f131,English,NA,Trying to understand what certain words i heard translated to in Japanese.,15,TINY,http://honestcookingblog.com/soundfiles/pyoNpyoN.mp3,B,751,tyiQtyai,tyiQtyai_SMALL,incorrect
60dd23ff5cfa2b6861f2f131,English,NA,Trying to understand what certain words i heard translated to in Japanese.,16,TICKLING,http://honestcookingblog.com/soundfiles/nebaneba.mp3,B,919,motyokoi,motyokoi_TICKLING,correct
60dd23ff5cfa2b6861f2f131,English,NA,Trying to understand what certain words i heard translated to in Japanese.,17,EXHAUSTED,http://honestcookingblog.com/soundfiles/iQpai.mp3,B,1245,kutakuta,kutakuta_EXHAUSTED,incorrect
60dd23ff5cfa2b6861f2f131,English,NA,Trying to understand what certain words i heard translated to in Japanese.,18,SLIMY,http://honestcookingblog.com/soundfiles/motyokoi.mp3,B,654,zuruNzuruN,zuruNzuruN_SLIMY,correct
60dd23ff5cfa2b6861f2f131,English,NA,Trying to understand what certain words i heard translated to in Japanese.,19,ANNOYED,http://honestcookingblog.com/soundfiles/iQpai.mp3,B,1007,yakiyaki,yakiyaki_ANNOYED/IMPATIENT,incorrect
60dd23ff5cfa2b6861f2f131,English,NA,Trying to understand what certain words i heard translated to in Japanese.,20,SUCK,http://honestcookingblog.com/soundfiles/katai.mp3,B,1039,suu,suu_SUCK,correct
60dd23ff5cfa2b6861f2f131,English,NA,Trying to understand what certain words i heard translated to in Japanese.,21,POUNDING (E.G. HEADACHE),http://honestcookingblog.com/soundfiles/semai.mp3,A,985,zyiNzyiN,zyiNzyiN_POUNDING (HEAD),correct
60dd23ff5cfa2b6861f2f131,English,NA,Trying to understand what certain words i heard translated to in Japanese.,22,TIRED,http://honestcookingblog.com/soundfiles/semai.mp3,A,823,hetoheto,hetoheto_EXHAUSTED,incorrect
60dd23ff5cfa2b6861f2f131,English,NA,Trying to understand what certain words i heard translated to in Japanese.,23,CLEAN,http://honestcookingblog.com/soundfiles/zoNzoN.mp3,A,1674,kiree,kiree_CLEAN,correct
60dd23ff5cfa2b6861f2f131,English,NA,Trying to understand what certain words i heard translated to in Japanese.,24,SHIVERS (DOWN YOUR SPINE),http://honestcookingblog.com/soundfiles/nurunuru.mp3,B,960,zoNzoN,zoNzoN_SHIVERING,correct
60dd23ff5cfa2b6861f2f131,English,NA,Trying to understand what certain words i heard translated to in Japanese.,25,ENERGETIC,http://honestcookingblog.com/soundfiles/yakamasyii.mp3,A,999,geNki,geNki_LIVELY,correct
60dd23ff5cfa2b6861f2f131,English,NA,Trying to understand what certain words i heard translated to in Japanese.,26,STUFFED (FROM EATING TOO MUCH),http://honestcookingblog.com/soundfiles/nebaneba.mp3,B,928,maNpuku,maNpuku_STUFFED (FULL OF FOOD),correct
60dd23ff5cfa2b6861f2f131,English,NA,Trying to understand what certain words i heard translated to in Japanese.,27,SLY,http://honestcookingblog.com/soundfiles/tyiQtyai.mp3,B,2360,kosui,kosui_CUNNING,incorrect
60dd23ff5cfa2b6861f2f131,English,NA,Trying to understand what certain words i heard translated to in Japanese.,28,HARD,http://honestcookingblog.com/soundfiles/yakamasyii.mp3,B,1443,katai,katai_HARD,correct
60dd23ff5cfa2b6861f2f131,English,NA,Trying to understand what certain words i heard translated to in Japanese.,29,BOUNCING,http://honestcookingblog.com/soundfiles/suu.mp3,A,932,pyoNpyoN,pyoNpyoN_HOPPING,correct
60dd23ff5cfa2b6861f2f131,English,NA,Trying to understand what certain words i heard translated to in Japanese.,30,WHISPERING,http://honestcookingblog.com/soundfiles/yakamasyii.mp3,B,800,hisohiso,hisohiso_WHISPERING,correct
60e043b7e24c7c17df3eb1e5,English,None,trying to work out which noise was the Japenese word.,1,WOBBLING,http://honestcookingblog.com/soundfiles/yagurasyika.mp3,A,2240,yoroyoro,yoroyoro_WOBBLING,correct
60e043b7e24c7c17df3eb1e5,English,None,trying to work out which noise was the Japenese word.,2,FLUFFY,http://honestcookingblog.com/soundfiles/katai.mp3,B,785,fuwafuwa,fuwafuwa_SOFT,correct
60e043b7e24c7c17df3eb1e5,English,None,trying to work out which noise was the Japenese word.,3,NOISY,http://honestcookingblog.com/soundfiles/katai.mp3,A,1067,yakamasyii,yakamasyii_NOISY,correct
60e043b7e24c7c17df3eb1e5,English,None,trying to work out which noise was the Japenese word.,4,MASSIVE,http://honestcookingblog.com/soundfiles/zuruNzuruN.mp3,B,1220,ookii,ookii_BIG,correct
60e043b7e24c7c17df3eb1e5,English,None,trying to work out which noise was the Japenese word.,5,SLICK,http://honestcookingblog.com/soundfiles/nebaneba.mp3,A,965,nurunuru,nurunuru_SLIMY,correct
60e043b7e24c7c17df3eb1e5,English,None,trying to work out which noise was the Japenese word.,6,FUZZY,http://honestcookingblog.com/soundfiles/kutakuta.mp3,B,1383,boNyari,boNyari_FUZZY,correct
60e043b7e24c7c17df3eb1e5,English,None,trying to work out which noise was the Japenese word.,7,FULL (TO BURSTING),http://honestcookingblog.com/soundfiles/fuwafuwa.mp3,A,892,iQpai,iQpai_FULL (TO THE BRIM),correct
60e043b7e24c7c17df3eb1e5,English,None,trying to work out which noise was the Japenese word.,8,TEAR,http://honestcookingblog.com/soundfiles/yoroyoro.mp3,B,616,saku,saku_TEAR,correct
